Session,Date,Treatment,Protocol,Stage,Trial,ID,Latency,Reason,Mode,Scoring,Force,TargetForce,RampDuration,CutoffTime,LegacyMode,TouchPause,TouchForce,TimeThreshold,Inconsistent,Response,SurgeryDate,DayNumber
3137,2025-07-02 09:19:54,CCD,AMN,PRE,C,DW368,1.8,Detection,Ramp,Auto,19.2,60.0,6,5,OFF,1.2,0.3,0.0,False,1,2025-07-02 09:19:54,0
3138,2025-07-02 09:20:12,CCD,AMN,PRE,C,DW368,5.1,Detection,Ramp,Auto,51.04,60.0,6,5,OFF,1.2,0.3,0.0,False,1,2025-07-02 09:19:54,0
3139,2025-07-02 09:20:29,CCD,AMN,PRE,C,DW368,6.2,Detection,Ramp,Auto,60.0,60.0,6,5,OFF,1.2,0.3,0.0,False,1,2025-07-02 09:19:54,0
3140,2025-07-02 09:20:39,CCD,AMN,PRE,C,DW368,0.0,Manual Stop,Ramp,Auto,0.3,60.0,6,5,OFF,1.2,0.3,0.0,False,0,2025-07-02 09:19:54,0
3141,2025-07-02 09:20:47,CCD,AMN,PRE,C,DW368,5.3,Detection,Ramp,Auto,54.03,60.0,6,5,OFF,1.2,0.3,0.0,False,1,2025-07-02 09:19:54,0
3142,2025-07-02 09:20:59,CCD,AMN,PRE,C,DW368,5.5,Detection,Ramp,Auto,55.36,60.0,6,5,OFF,1.2,0.3,0.0,False,1,2025-07-02 09:19:54,0
3143,2025-07-02 09:21:14,CCD,AMN,PRE,C,DW368,5.6,Detection,Ramp,Auto,55.03,60.0,6,5,OFF,1.2,0.3,0.0,False,1,2025-07-02 09:19:54,0
3144,2025-07-02 09:21:26,CCD,AMN,PRE,C,DW368,5.3,Detection,Ramp,Auto,53.03,60.0,6,5,OFF,1.2,0.3,0.0,False,1,2025-07-02 09:19:54,0
3145,2025-07-02 09:21:38,CCD,AMN,PRE,C,DW368,3.2,Detection,Ramp,Auto,32.14,60.0,6,5,OFF,1.2,0.3,0.0,False,1,2025-07-02 09:19:54,0
3146,2025-07-02 09:21:53,CCD,AMN,PRE,C,DW368,2.9,Detection,Ramp,Auto,29.49,60.0,6,5,OFF,1.2,0.3,0.0,False,1,2025-07-02 09:19:54,0
3147,2025-07-02 09:22:00,CCD,AMN,PRE,C,DW368,0.0,Manual Stop,Ramp,Auto,0.3,60.0,6,5,OFF,1.2,0.3,0.0,False,0,2025-07-02 09:19:54,0
3148,2025-07-02 09:22:08,CCD,AMN,PRE,C,DW368,5.2,Detection,Ramp,Auto,50.71,60.0,6,5,OFF,1.2,0.3,0.0,False,1,2025-07-02 09:19:54,0
3149,2025-07-02 09:22:19,CCD,AMN,PRE,C,DW368,3.5,Detection,Ramp,Auto,36.12,60.0,6,5,OFF,1.2,0.3,0.0,False,1,2025-07-02 09:19:54,0
3150,2025-07-02 09:22:37,CCD,AMN,PRE,C,DW368,5.8,Detection,Ramp,Auto,56.68,60.0,6,5,OFF,1.2,0.3,0.0,False,1,2025-07-02 09:19:54,0
3151,2025-07-02 09:22:58,CCD,AMN,PRE,I,DW368,0.0,Manual Stop,Ramp,Auto,0.3,60.0,6,5,OFF,1.2,0.3,0.0,False,0,2025-07-02 09:19:54,0
3152,2025-07-02 09:23:07,CCD,AMN,PRE,I,DW368,4.2,Detection,Ramp,Auto,41.76,60.0,6,5,OFF,1.2,0.3,0.0,False,1,2025-07-02 09:19:54,0
3153,2025-07-02 09:23:16,CCD,AMN,PRE,I,DW368,0.0,Manual Stop,Ramp,Auto,0.3,60.0,6,5,OFF,1.2,0.3,0.0,False,0,2025-07-02 09:19:54,0
3154,2025-07-02 09:23:21,CCD,AMN,PRE,I,DW368,2.6,Detection,Ramp,Auto,26.17,60.0,6,5,OFF,1.2,0.3,0.0,False,1,2025-07-02 09:19:54,0
3155,2025-07-02 09:23:35,CCD,AMN,PRE,I,DW368,4.8,Detection,Ramp,Auto,48.39,60.0,6,5,OFF,1.2,0.3,0.0,False,1,2025-07-02 09:19:54,0
3156,2025-07-02 09:23:43,CCD,AMN,PRE,I,DW368,1.5,Detection,Ramp,Auto,15.89,60.0,6,5,OFF,1.2,0.3,0.0,False,1,2025-07-02 09:19:54,0
3157,2025-07-02 09:23:53,CCD,AMN,PRE,I,DW368,1.3,Detection,Ramp,Auto,13.9,60.0,6,5,OFF,1.2,0.3,0.0,False,1,2025-07-02 09:19:54,0
3158,2025-07-02 09:24:28,CCD,AMN,PRE,I,DW368,3.6,Detection,Ramp,Auto,36.45,60.0,6,5,OFF,1.2,0.3,0.0,False,1,2025-07-02 09:19:54,0
3159,2025-07-02 09:24:53,CCD,AMN,PRE,I,DW368,4.7,Detection,Ramp,Auto,47.06,60.0,6,5,OFF,1.2,0.3,0.0,False,1,2025-07-02 09:19:54,0
3160,2025-07-02 09:25:03,CCD,AMN,PRE,I,DW368,2.0,Detection,Ramp,Auto,20.86,60.0,6,5,OFF,1.2,0.3,0.0,False,1,2025-07-02 09:19:54,0
3161,2025-07-02 09:25:14,CCD,AMN,PRE,I,DW368,2.8,Detection,Ramp,Auto,29.16,60.0,6,5,OFF,1.2,0.3,0.0,False,1,2025-07-02 09:19:54,0
3162,2025-07-02 09:25:22,CCD,AMN,PRE,I,DW368,2.2,Detection,Ramp,Auto,22.85,60.0,6,5,OFF,1.2,0.3,0.0,False,1,2025-07-02 09:19:54,0
3163,2025-07-02 09:25:45,CCD,AMN,PRE,I,DW368,0.0,Manual Stop,Ramp,Auto,0.3,60.0,6,5,OFF,1.2,0.3,0.0,False,0,2025-07-02 09:19:54,0
3164,2025-07-02 09:25:51,CCD,AMN,PRE,I,DW368,2.7,Detection,Ramp,Auto,27.17,60.0,6,5,OFF,1.2,0.3,0.0,False,1,2025-07-02 09:19:54,0
3165,2025-07-02 09:26:01,CCD,AMN,PRE,I,DW368,1.8,Detection,Ramp,Auto,18.54,60.0,6,5,OFF,1.2,0.3,0.0,False,1,2025-07-02 09:19:54,0
3166,2025-07-02 10:38:51,CCD,AMN,PRE,I,DW369,0.9,Detection,Ramp,Auto,9.59,60.0,6,5,OFF,1.2,0.3,0.0,False,1,2025-07-02 10:38:51,0
3167,2025-07-02 10:39:00,CCD,AMN,PRE,I,DW369,2.9,Detection,Ramp,Auto,29.16,60.0,6,5,OFF,1.2,0.3,0.0,False,1,2025-07-02 10:38:51,0
3168,2025-07-02 10:40:01,CCD,AMN,PRE,I,DW369,5.9,Detection,Ramp,Auto,58.67,60.0,6,5,OFF,1.2,0.3,0.0,False,1,2025-07-02 10:38:51,0
3169,2025-07-02 10:40:39,CCD,AMN,PRE,I,DW369,3.8,Detection,Ramp,Auto,38.77,60.0,6,5,OFF,1.2,0.3,0.0,False,1,2025-07-02 10:38:51,0
3170,2025-07-02 10:41:57,CCD,AMN,PRE,I,DW369,0.0,Manual Stop,Ramp,Auto,0.3,60.0,6,5,OFF,1.2,0.3,0.0,False,0,2025-07-02 10:38:51,0
3171,2025-07-02 10:41:59,CCD,AMN,PRE,I,DW369,0.0,Detection,Ramp,Auto,0.3,60.0,6,5,OFF,1.2,0.3,0.0,True,0,2025-07-02 10:38:51,0
3172,2025-07-02 10:42:05,CCD,AMN,PRE,I,DW369,0.9,Detection,Ramp,Auto,9.59,60.0,6,5,OFF,1.2,0.3,0.0,False,1,2025-07-02 10:38:51,0
3173,2025-07-02 10:42:46,CCD,AMN,PRE,I,DW369,1.1,Detection,Ramp,Auto,11.91,60.0,6,5,OFF,1.2,0.3,0.0,False,1,2025-07-02 10:38:51,0
3174,2025-07-02 10:43:01,CCD,AMN,PRE,I,DW369,3.5,Detection,Ramp,Auto,34.13,60.0,6,5,OFF,1.2,0.3,0.0,False,1,2025-07-02 10:38:51,0
3175,2025-07-02 10:43:28,CCD,AMN,PRE,I,DW369,3.5,Detection,Ramp,Auto,35.13,60.0,6,5,OFF,1.2,0.3,0.0,False,1,2025-07-02 10:38:51,0
3176,2025-07-02 10:44:45,CCD,AMN,PRE,I,DW369,4.7,Detection,Ramp,Auto,46.73,60.0,6,5,OFF,1.2,0.3,0.0,False,1,2025-07-02 10:38:51,0
3177,2025-07-02 10:45:44,CCD,AMN,PRE,I,DW369,0.0,Manual Stop,Ramp,Auto,0.3,60.0,6,5,OFF,1.2,0.3,0.0,False,0,2025-07-02 10:38:51,0
3178,2025-07-02 10:45:54,CCD,AMN,PRE,I,DW369,1.1,Detection,Ramp,Auto,11.91,60.0,6,5,OFF,1.2,0.3,0.0,False,1,2025-07-02 10:38:51,0
3179,2025-07-02 10:47:17,CCD,AMN,PRE,I,DW369,0.2,Detection,Ramp,Auto,2.62,60.0,6,5,OFF,1.2,0.3,0.0,False,1,2025-07-02 10:38:51,0
3180,2025-07-02 10:47:36,CCD,AMN,PRE,I,DW369,3.7,Detection,Ramp,Auto,38.11,60.0,6,5,OFF,1.2,0.3,0.0,False,1,2025-07-02 10:38:51,0
3181,2025-07-02 10:47:54,CCD,AMN,PRE,I,DW369,11.0,Cutoff,Ramp,Auto,60.0,60.0,6,5,OFF,1.2,0.3,0.0,False,0,2025-07-02 10:38:51,0
3182,2025-07-02 10:48:00,CCD,AMN,PRE,I,DW369,2.0,Detection,Ramp,Auto,19.54,60.0,6,5,OFF,1.2,0.3,0.0,False,1,2025-07-02 10:38:51,0
3183,2025-07-02 10:49:51,CCD,AMN,PRE,C,DW369,1.9,Undefined,Ramp,Auto,19.54,60.0,6,5,OFF,1.2,0.3,0.0,False,0,2025-07-02 10:38:51,0
3184,2025-07-02 10:49:58,CCD,AMN,PRE,C,DW369,3.9,Detection,Ramp,Auto,38.77,60.0,6,5,OFF,1.2,0.3,0.0,False,1,2025-07-02 10:38:51,0
3185,2025-07-02 10:50:04,CCD,AMN,PRE,C,DW369,2.3,Detection,Ramp,Auto,23.85,60.0,6,5,OFF,1.2,0.3,0.0,False,1,2025-07-02 10:38:51,0
3186,2025-07-02 10:50:13,CCD,AMN,PRE,C,DW369,4.6,Detection,Ramp,Auto,46.4,60.0,6,5,OFF,1.2,0.3,0.0,False,1,2025-07-02 10:38:51,0
3187,2025-07-02 10:51:14,CCD,AMN,PRE,C,DW369,0.0,Manual Stop,Ramp,Auto,0.3,60.0,6,5,OFF,1.2,0.3,0.0,False,0,2025-07-02 10:38:51,0
3188,2025-07-02 10:51:22,CCD,AMN,PRE,C,DW369,0.9,Detection,Ramp,Auto,9.92,60.0,6,5,OFF,1.2,0.3,0.0,False,1,2025-07-02 10:38:51,0
3189,2025-07-02 10:51:32,CCD,AMN,PRE,C,DW369,3.6,Detection,Ramp,Auto,36.12,60.0,6,5,OFF,1.2,0.3,0.0,False,1,2025-07-02 10:38:51,0
3190,2025-07-02 10:51:49,CCD,AMN,PRE,I,DW369,0.0,Manual Stop,Ramp,Auto,0.3,60.0,6,5,OFF,1.2,0.3,0.0,False,0,2025-07-02 10:38:51,0
3191,2025-07-02 10:51:55,CCD,AMN,PRE,I,DW369,4.1,Detection,Ramp,Auto,41.1,60.0,6,5,OFF,1.2,0.3,0.0,False,1,2025-07-02 10:38:51,0
3192,2025-07-02 10:52:04,CCD,AMN,PRE,I,DW369,3.9,Detection,Ramp,Auto,39.1,60.0,6,5,OFF,1.2,0.3,0.0,False,1,2025-07-02 10:38:51,0
3193,2025-07-02 10:52:11,CCD,AMN,PRE,I,DW369,4.0,Detection,Ramp,Auto,40.43,60.0,6,5,OFF,1.2,0.3,0.0,False,1,2025-07-02 10:38:51,0
3194,2025-07-02 10:52:17,CCD,AMN,PRE,I,DW369,2.2,Detection,Ramp,Auto,22.85,60.0,6,5,OFF,1.2,0.3,0.0,False,1,2025-07-02 10:38:51,0
3195,2025-07-02 10:52:25,CCD,AMN,PRE,I,DW369,3.1,Detection,Ramp,Auto,31.15,60.0,6,5,OFF,1.2,0.3,0.0,False,1,2025-07-02 10:38:51,0
3196,2025-07-02 10:52:43,CCD,AMN,PRE,I,DW369,4.7,Detection,Ramp,Auto,46.73,60.0,6,5,OFF,1.2,0.3,0.0,False,1,2025-07-02 10:38:51,0
3197,2025-07-03 13:53:27,CCD,AMN,POST,TEST,DW369,1.8,Detection,Ramp,Auto,19.2,60.0,6,5,OFF,1.2,0.3,0.0,False,1,2025-07-02 10:38:51,1
3198,2025-07-03 13:53:38,CCD,AMN,POST,TEST,DW369,4.5,Detection,Ramp,Auto,45.41,60.0,6,5,OFF,1.2,0.3,0.0,False,1,2025-07-02 10:38:51,1
3199,2025-07-03 13:54:02,CCD,AMN,POST,TEST,DW369,3.3,Detection,Ramp,Auto,32.8,60.0,6,5,OFF,1.2,0.3,0.0,False,1,2025-07-02 10:38:51,1
3200,2025-07-03 13:54:19,CCD,AMN,POST,TEST,DW369,0.0,Manual Stop,Ramp,Auto,0.3,60.0,6,5,OFF,1.2,0.3,0.0,False,0,2025-07-02 10:38:51,1
3201,2025-07-03 13:54:24,CCD,AMN,POST,TEST,DW369,1.0,Detection,Ramp,Auto,10.58,60.0,6,5,OFF,1.2,0.3,0.0,False,1,2025-07-02 10:38:51,1
3202,2025-07-03 13:54:33,CCD,AMN,POST,TEST,DW369,2.7,Detection,Ramp,Auto,27.5,60.0,6,5,OFF,1.2,0.3,0.0,False,1,2025-07-02 10:38:51,1
3203,2025-07-03 13:54:41,CCD,AMN,POST,TEST,DW369,0.8,Detection,Ramp,Auto,8.92,60.0,6,5,OFF,1.2,0.3,0.0,False,1,2025-07-02 10:38:51,1
3204,2025-07-03 13:55:16,CCD,AMN,POST,TEST,DW369,0.0,Manual Stop,Ramp,Auto,0.3,60.0,6,5,OFF,1.2,0.3,0.0,False,0,2025-07-02 10:38:51,1
3205,2025-07-03 13:55:21,CCD,AMN,POST,TEST,DW369,2.4,Detection,Ramp,Auto,23.85,60.0,6,5,OFF,1.2,0.3,0.0,False,1,2025-07-02 10:38:51,1
3206,2025-07-03 13:56:15,CCD,AMN,POST,TEST,DW369,0.0,Manual Stop,Ramp,Auto,0.0,60.0,6,5,OFF,1.2,0.3,0.0,False,0,2025-07-02 10:38:51,1
3207,2025-07-03 13:56:19,CCD,AMN,POST,TEST,DW369,0.5,Detection,Ramp,Auto,5.61,60.0,6,5,OFF,1.2,0.3,0.0,False,1,2025-07-02 10:38:51,1
3208,2025-07-03 13:56:29,CCD,AMN,POST,TEST,DW369,3.2,Detection,Ramp,Auto,32.47,60.0,6,5,OFF,1.2,0.3,0.0,False,1,2025-07-02 10:38:51,1
3209,2025-07-03 13:57:45,CCD,AMN,POST,TEST,DW369,0.0,Manual Stop,Ramp,Auto,0.3,60.0,6,5,OFF,1.2,0.3,0.0,False,0,2025-07-02 10:38:51,1
3210,2025-07-03 13:57:48,CCD,AMN,POST,TEST,DW369,0.2,Detection,Ramp,Auto,2.62,60.0,6,5,OFF,1.2,0.3,0.0,False,1,2025-07-02 10:38:51,1
3211,2025-07-03 13:58:26,CCD,AMN,POST,TEST,DW369,3.2,Detection,Ramp,Auto,33.13,60.0,6,5,OFF,1.2,0.3,0.0,False,1,2025-07-02 10:38:51,1
3212,2025-07-03 13:58:46,CCD,AMN,POST,TEST,DW369,1.5,Detection,Ramp,Auto,15.23,60.0,6,5,OFF,1.2,0.3,0.0,False,1,2025-07-02 10:38:51,1
3213,2025-07-03 13:59:33,CCD,AMN,POST,TEST,DW369,1.7,Detection,Ramp,Auto,17.22,60.0,6,5,OFF,1.2,0.3,0.0,False,1,2025-07-02 10:38:51,1
3214,2025-07-03 14:00:07,CCD,AMN,POST,TEST,DW369,2.9,Detection,Ramp,Auto,29.16,60.0,6,5,OFF,1.2,0.3,0.0,False,1,2025-07-02 10:38:51,1
3215,2025-07-03 14:00:46,CCD,AMN,POST,TEST,DW369,2.8,Detection,Ramp,Auto,27.83,60.0,6,5,OFF,1.2,0.3,0.0,False,1,2025-07-02 10:38:51,1
3216,2025-07-03 14:01:46,CCD,AMN,POST,TEST,DW369,1.4,Detection,Ramp,Auto,14.23,60.0,6,5,OFF,1.2,0.3,0.0,False,1,2025-07-02 10:38:51,1
3217,2025-07-03 14:02:02,CCD,AMN,POST,TEST,DW369,0.0,Detection,Ramp,Auto,0.3,60.0,6,5,OFF,1.2,0.3,0.0,True,0,2025-07-02 10:38:51,1
3218,2025-07-03 14:02:36,CCD,AMN,POST,TEST,DW369,0.2,Manual Stop,Ramp,Auto,2.29,60.0,6,5,OFF,1.2,0.3,0.0,True,0,2025-07-02 10:38:51,1
3219,2025-07-03 14:02:41,CCD,AMN,POST,TEST,DW369,2.5,Detection,Ramp,Auto,25.84,60.0,6,5,OFF,1.2,0.3,0.0,False,1,2025-07-02 10:38:51,1
3220,2025-07-03 14:03:22,CCD,AMN,POST,TEST,DW369,0.0,Manual Stop,Ramp,Auto,0.63,60.0,6,5,OFF,1.2,0.3,0.0,False,0,2025-07-02 10:38:51,1
3221,2025-07-03 14:03:25,CCD,AMN,POST,TEST,DW369,0.0,Manual Stop,Ramp,Auto,0.3,60.0,6,5,OFF,1.2,0.3,0.0,False,0,2025-07-02 10:38:51,1
3222,2025-07-03 14:03:31,CCD,AMN,POST,TEST,DW369,0.3,Manual Stop,Ramp,Auto,2.62,60.0,6,5,OFF,1.2,0.3,0.0,True,0,2025-07-02 10:38:51,1
3223,2025-07-03 14:03:33,CCD,AMN,POST,TEST,DW369,0.0,Manual Stop,Ramp,Auto,0.3,60.0,6,5,OFF,1.2,0.3,0.0,False,0,2025-07-02 10:38:51,1
3224,2025-07-03 14:03:36,CCD,AMN,POST,TEST,DW369,0.0,Manual Stop,Ramp,Auto,0.3,60.0,6,5,OFF,1.2,0.3,0.0,False,0,2025-07-02 10:38:51,1
3225,2025-07-03 14:03:41,CCD,AMN,POST,TEST,DW369,2.4,Detection,Ramp,Auto,25.17,60.0,6,5,OFF,1.2,0.3,0.0,False,1,2025-07-02 10:38:51,1
3226,2025-07-03 14:04:08,CCD,AMN,POST,TEST,DW369,0.0,Manual Stop,Ramp,Auto,0.3,60.0,6,5,OFF,1.2,0.3,0.0,False,0,2025-07-02 10:38:51,1
3227,2025-07-03 14:04:11,CCD,AMN,POST,TEST,DW369,0.0,Manual Stop,Ramp,Auto,0.3,60.0,6,5,OFF,1.2,0.3,0.0,False,0,2025-07-02 10:38:51,1
3228,2025-07-03 14:04:14,CCD,AMN,POST,TEST,DW369,0.5,Detection,Ramp,Auto,6.27,60.0,6,5,OFF,1.2,0.3,0.0,False,1,2025-07-02 10:38:51,1
3229,2025-07-03 14:04:20,CCD,AMN,POST,TEST,DW369,2.6,Detection,Ramp,Auto,26.5,60.0,6,5,OFF,1.2,0.3,0.0,False,1,2025-07-02 10:38:51,1
3230,2025-07-03 14:04:53,CCD,AMN,POST,TEST,DW369,1.6,Detection,Ramp,Auto,16.55,60.0,6,5,OFF,1.2,0.3,0.0,False,1,2025-07-02 10:38:51,1
3231,2025-07-03 14:04:56,CCD,AMN,POST,TEST,DW369,0.1,Detection,Ramp,Auto,1.63,60.0,6,5,OFF,1.2,0.3,0.0,False,1,2025-07-02 10:38:51,1
3232,2025-07-03 14:05:06,CCD,AMN,POST,TEST,DW369,0.0,Manual Stop,Ramp,Auto,0.63,60.0,6,5,OFF,1.2,0.3,0.0,False,0,2025-07-02 10:38:51,1
3233,2025-07-03 14:05:09,CCD,AMN,POST,TEST,DW369,0.0,Manual Stop,Ramp,Auto,0.3,60.0,6,5,OFF,1.2,0.3,0.0,False,0,2025-07-02 10:38:51,1
3234,2025-07-03 14:05:14,CCD,AMN,POST,TEST,DW369,3.0,Detection,Ramp,Auto,30.15,60.0,6,5,OFF,1.2,0.3,0.0,False,1,2025-07-02 10:38:51,1
3235,2025-07-03 14:05:29,CCD,AMN,POST,TEST,DW369,0.0,Detection,Ramp,Auto,0.3,60.0,6,5,OFF,1.2,0.3,0.0,True,0,2025-07-02 10:38:51,1
3236,2025-07-03 14:05:47,CCD,AMN,POST,TEST,DW369,0.0,Manual Stop,Ramp,Auto,0.3,60.0,6,5,OFF,1.2,0.3,0.0,False,0,2025-07-02 10:38:51,1
3237,2025-07-03 14:05:52,CCD,AMN,POST,TEST,DW369,0.0,Manual Stop,Ramp,Auto,0.3,60.0,6,5,OFF,1.2,0.3,0.0,False,0,2025-07-02 10:38:51,1
3238,2025-07-03 14:06:04,CCD,AMN,POST,TEST,DW369,0.0,Manual Stop,Ramp,Auto,0.63,60.0,6,5,OFF,1.2,0.3,0.0,False,0,2025-07-02 10:38:51,1
3239,2025-07-03 14:06:07,CCD,AMN,POST,TEST,DW369,0.2,Detection,Ramp,Auto,2.29,60.0,6,5,OFF,1.2,0.3,0.0,False,1,2025-07-02 10:38:51,1
3240,2025-07-03 14:06:17,CCD,AMN,POST,TEST,DW369,0.0,Detection,Ramp,Auto,0.3,60.0,6,5,OFF,1.2,0.3,0.0,True,0,2025-07-02 10:38:51,1
3241,2025-07-03 14:06:26,CCD,AMN,POST,TEST,DW369,3.1,Detection,Ramp,Auto,31.15,60.0,6,5,OFF,1.2,0.3,0.0,False,1,2025-07-02 10:38:51,1
3242,2025-07-03 14:07:35,CCD,AMN,POST,TEST,DW369,10.4,Manual Stop,Ramp,Auto,60.0,60.0,6,5,OFF,1.2,0.3,0.0,True,0,2025-07-02 10:38:51,1
3243,2025-07-03 14:07:42,CCD,AMN,POST,TEST,DW369,3.4,Detection,Ramp,Auto,33.8,60.0,6,5,OFF,1.2,0.3,0.0,False,1,2025-07-02 10:38:51,1
3244,2025-07-03 14:07:55,CCD,AMN,POST,TEST,DW369,3.6,Detection,Ramp,Auto,36.12,60.0,6,5,OFF,1.2,0.3,0.0,False,1,2025-07-02 10:38:51,1
3245,2025-07-03 14:08:04,CCD,AMN,POST,TEST,DW369,4.8,Detection,Ramp,Auto,48.06,60.0,6,5,OFF,1.2,0.3,0.0,False,1,2025-07-02 10:38:51,1
3246,2025-07-03 14:08:17,CCD,AMN,POST,TEST,DW369,4.7,Detection,Ramp,Auto,46.73,60.0,6,5,OFF,1.2,0.3,0.0,False,1,2025-07-02 10:38:51,1
3247,2025-07-03 14:08:43,CCD,AMN,POST,TEST,DW369,0.2,Manual Stop,Ramp,Auto,2.29,60.0,6,5,OFF,1.2,0.3,0.0,True,0,2025-07-02 10:38:51,1
3248,2025-07-03 14:08:51,CCD,AMN,POST,TEST,DW369,3.4,Detection,Ramp,Auto,34.13,60.0,6,5,OFF,1.2,0.3,0.0,False,1,2025-07-02 10:38:51,1
3249,2025-07-03 14:09:00,CCD,AMN,POST,TEST,DW369,0.1,Manual Stop,Ramp,Auto,1.29,60.0,6,5,OFF,1.2,0.3,0.0,True,0,2025-07-02 10:38:51,1
3250,2025-07-03 14:09:03,CCD,AMN,POST,TEST,DW369,0.8,Detection,Ramp,Auto,9.26,60.0,6,5,OFF,1.2,0.3,0.0,False,1,2025-07-02 10:38:51,1
3251,2025-07-03 14:09:14,CCD,AMN,POST,TEST,DW369,4.6,Detection,Ramp,Auto,46.07,60.0,6,5,OFF,1.2,0.3,0.0,False,1,2025-07-02 10:38:51,1
3252,2025-07-03 14:10:22,CCD,AMN,POST,TEST,DW369,0.4,Manual Stop,Ramp,Auto,3.62,60.0,6,5,OFF,1.2,0.3,0.0,True,0,2025-07-02 10:38:51,1
3253,2025-07-03 14:10:31,CCD,AMN,POST,TEST,DW369,5.8,Detection,Ramp,Auto,57.01,60.0,6,5,OFF,1.2,0.3,0.0,False,1,2025-07-02 10:38:51,1
3254,2025-07-03 14:10:50,CCD,AMN,POST,TEST,DW369,4.1,Detection,Ramp,Auto,39.44,60.0,6,5,OFF,1.2,0.3,0.0,False,1,2025-07-02 10:38:51,1
3255,2025-07-03 14:11:05,CCD,AMN,POST,TEST,DW369,5.0,Detection,Ramp,Auto,49.39,60.0,6,5,OFF,1.2,0.3,0.0,False,1,2025-07-02 10:38:51,1
3256,2025-07-03 14:11:21,CCD,AMN,POST,TEST,DW369,3.1,Detection,Ramp,Auto,30.81,60.0,6,5,OFF,1.2,0.3,0.0,False,1,2025-07-02 10:38:51,1
3257,2025-07-03 14:11:40,CCD,AMN,POST,TEST,DW369,3.6,Detection,Ramp,Auto,36.78,60.0,6,5,OFF,1.2,0.3,0.0,False,1,2025-07-02 10:38:51,1
3258,2025-07-03 14:12:06,CCD,AMN,POST,TEST,DW369,4.5,Detection,Ramp,Auto,44.08,60.0,6,5,OFF,1.2,0.3,0.0,False,1,2025-07-02 10:38:51,1
3259,2025-07-03 14:12:15,CCD,AMN,POST,TEST,DW369,3.3,Detection,Ramp,Auto,33.47,60.0,6,5,OFF,1.2,0.3,0.0,False,1,2025-07-02 10:38:51,1
3260,2025-07-03 14:12:40,CCD,AMN,POST,TEST,DW369,2.4,Detection,Ramp,Auto,23.85,60.0,6,5,OFF,1.2,0.3,0.0,False,1,2025-07-02 10:38:51,1
3261,2025-07-03 14:12:58,CCD,AMN,POST,TEST,DW369,0.0,Manual Stop,Ramp,Auto,0.3,60.0,6,5,OFF,1.2,0.3,0.0,False,0,2025-07-02 10:38:51,1
3262,2025-07-03 14:13:07,CCD,AMN,POST,TEST,DW369,4.2,Detection,Ramp,Auto,42.42,60.0,6,5,OFF,1.2,0.3,0.0,False,1,2025-07-02 10:38:51,1
3263,2025-07-03 14:13:39,CCD,AMN,POST,TEST,DW369,0.2,Manual Stop,Ramp,Auto,2.29,60.0,6,5,OFF,1.2,0.3,0.0,True,0,2025-07-02 10:38:51,1
3264,2025-07-03 14:13:44,CCD,AMN,POST,TEST,DW369,2.0,Detection,Ramp,Auto,20.86,60.0,6,5,OFF,1.2,0.3,0.0,False,1,2025-07-02 10:38:51,1
3265,2025-07-03 14:14:21,CCD,AMN,POST,TEST,DW369,0.2,Detection,Ramp,Auto,2.62,60.0,6,5,OFF,1.2,0.3,0.0,False,1,2025-07-02 10:38:51,1
3266,2025-07-03 14:14:47,CCD,AMN,POST,TEST,DW369,3.4,Detection,Ramp,Auto,33.47,60.0,6,5,OFF,1.2,0.3,0.0,False,1,2025-07-02 10:38:51,1
3267,2025-07-03 14:14:59,CCD,AMN,POST,TEST,DW369,3.8,Detection,Ramp,Auto,37.45,60.0,6,5,OFF,1.2,0.3,0.0,False,1,2025-07-02 10:38:51,1
3268,2025-07-03 14:15:06,CCD,AMN,POST,TEST,DW369,0.3,Detection,Ramp,Auto,4.28,60.0,6,5,OFF,1.2,0.3,0.0,False,1,2025-07-02 10:38:51,1
3269,2025-07-03 14:18:10,CCD,AMN,POST,TEST,DW369,0.0,Manual Stop,Ramp,Auto,0.63,60.0,6,5,OFF,1.2,0.3,0.0,False,0,2025-07-02 10:38:51,1
3270,2025-07-03 14:18:13,CCD,AMN,POST,TEST,DW369,0.0,Manual Stop,Ramp,Auto,0.3,60.0,6,5,OFF,1.2,0.3,0.0,False,0,2025-07-02 10:38:51,1
3271,2025-07-03 14:18:22,CCD,AMN,POST,TEST,DW369,0.2,Manual Stop,Ramp,Auto,2.29,60.0,6,5,OFF,1.2,0.3,0.0,True,0,2025-07-02 10:38:51,1
3272,2025-07-03 14:18:46,CCD,AMN,POST,TEST,DW369,0.4,Detection,Ramp,Auto,4.28,60.0,6,5,OFF,1.2,0.3,0.0,False,1,2025-07-02 10:38:51,1
3273,2025-07-03 14:19:00,CCD,AMN,POST,TEST,DW369,11.0,Cutoff,Ramp,Auto,60.0,60.0,6,5,OFF,1.2,0.3,0.0,False,0,2025-07-02 10:38:51,1
3274,2025-07-03 14:19:06,CCD,AMN,POST,TEST,DW369,0.1,Manual Stop,Ramp,Auto,1.29,60.0,6,5,OFF,1.2,0.3,0.0,True,0,2025-07-02 10:38:51,1
3275,2025-07-03 14:19:10,CCD,AMN,POST,TEST,DW369,0.2,Detection,Ramp,Auto,2.29,60.0,6,5,OFF,1.2,0.3,0.0,False,1,2025-07-02 10:38:51,1
3276,2025-07-03 14:23:02,CCD,AMN,POST,I,DW369,1.7,Detection,Ramp,Auto,16.88,60.0,6,5,OFF,1.2,0.3,0.0,False,1,2025-07-02 10:38:51,1
3277,2025-07-03 14:25:32,CCD,AMN,POST,C,DW369,0.2,Detection,Ramp,Auto,2.95,60.0,6,5,OFF,1.2,0.3,0.0,False,1,2025-07-02 10:38:51,1
3278,2025-07-03 14:26:17,CCD,AMN,POST,C,DW369,3.0,Detection,Ramp,Auto,31.15,60.0,6,5,OFF,1.2,0.3,0.0,False,1,2025-07-02 10:38:51,1
3279,2025-07-03 14:26:32,CCD,AMN,POST,C,DW369,5.5,Detection,Ramp,Auto,55.69,60.0,6,5,OFF,1.2,0.3,0.0,False,1,2025-07-02 10:38:51,1
3280,2025-07-03 14:26:47,CCD,AMN,POST,C,DW369,4.2,Detection,Ramp,Auto,40.76,60.0,6,5,OFF,1.2,0.3,0.0,False,1,2025-07-02 10:38:51,1
3281,2025-07-03 14:26:59,CCD,AMN,POST,C,DW369,0.7,Detection,Ramp,Auto,7.6,60.0,6,5,OFF,1.2,0.3,0.0,False,1,2025-07-02 10:38:51,1
3282,2025-07-03 14:27:17,CCD,AMN,POST,C,DW369,5.1,Detection,Ramp,Auto,50.71,60.0,6,5,OFF,1.2,0.3,0.0,False,1,2025-07-02 10:38:51,1
3283,2025-07-03 14:27:38,CCD,AMN,POST,C,DW369,4.3,Detection,Ramp,Auto,43.75,60.0,6,5,OFF,1.2,0.3,0.0,False,1,2025-07-02 10:38:51,1
3284,2025-07-03 14:27:58,CCD,AMN,POST,C,DW369,0.4,Detection,Ramp,Auto,4.61,60.0,6,5,OFF,1.2,0.3,0.0,False,1,2025-07-02 10:38:51,1
3285,2025-07-03 14:29:08,CCD,AMN,POST,C,DW369,0.3,Manual Stop,Ramp,Auto,2.95,60.0,6,5,OFF,1.2,0.3,0.0,True,0,2025-07-02 10:38:51,1
3286,2025-07-03 14:29:14,CCD,AMN,POST,C,DW369,1.8,Detection,Ramp,Auto,18.87,60.0,6,5,OFF,1.2,0.3,0.0,False,1,2025-07-02 10:38:51,1
3287,2025-07-03 14:29:27,CCD,AMN,POST,C,DW369,4.0,Detection,Ramp,Auto,39.44,60.0,6,5,OFF,1.2,0.3,0.0,False,1,2025-07-02 10:38:51,1
3288,2025-07-03 14:29:48,CCD,AMN,POST,C,DW369,3.4,Detection,Ramp,Auto,35.13,60.0,6,5,OFF,1.2,0.3,0.0,False,1,2025-07-02 10:38:51,1
3289,2025-07-03 14:30:07,CCD,AMN,POST,C,DW369,6.3,Detection,Ramp,Auto,60.0,60.0,6,5,OFF,1.2,0.3,0.0,False,1,2025-07-02 10:38:51,1
3290,2025-07-03 14:30:53,CCD,AMN,POST,C,DW369,3.4,Detection,Ramp,Auto,33.47,60.0,6,5,OFF,1.2,0.3,0.0,False,1,2025-07-02 10:38:51,1
3291,2025-07-03 14:31:23,CCD,AMN,POST,C,DW369,3.3,Detection,Ramp,Auto,33.47,60.0,6,5,OFF,1.2,0.3,0.0,False,1,2025-07-02 10:38:51,1
3292,2025-07-03 14:32:06,CCD,AMN,POST,C,DW369,11.0,Cutoff,Ramp,Auto,60.0,60.0,6,5,OFF,1.2,0.3,0.0,False,0,2025-07-02 10:38:51,1
3293,2025-07-03 14:32:21,CCD,AMN,POST,C,DW369,4.4,Detection,Ramp,Auto,44.74,60.0,6,5,OFF,1.2,0.3,0.0,False,1,2025-07-02 10:38:51,1
3294,2025-07-03 14:35:39,CCD,AMN,POST,I,DW369,1.7,Detection,Ramp,Auto,17.22,60.0,6,5,OFF,1.2,0.3,0.0,False,1,2025-07-02 10:38:51,1
3295,2025-07-03 14:36:04,CCD,AMN,POST,I,DW369,3.2,Detection,Ramp,Auto,32.14,60.0,6,5,OFF,1.2,0.3,0.0,False,1,2025-07-02 10:38:51,1
3296,2025-07-03 14:36:52,CCD,AMN,POST,I,DW369,1.1,Detection,Ramp,Auto,11.91,60.0,6,5,OFF,1.2,0.3,0.0,False,1,2025-07-02 10:38:51,1
3297,2025-07-03 14:37:54,CCD,AMN,POST,I,DW369,0.2,Detection,Ramp,Auto,2.62,60.0,6,5,OFF,1.2,0.3,0.0,False,1,2025-07-02 10:38:51,1
3298,2025-07-03 14:38:01,CCD,AMN,POST,I,DW369,2.6,Detection,Ramp,Auto,25.84,60.0,6,5,OFF,1.2,0.3,0.0,False,1,2025-07-02 10:38:51,1
3299,2025-07-03 14:38:39,CCD,AMN,POST,I,DW369,1.4,Detection,Ramp,Auto,13.9,60.0,6,5,OFF,1.2,0.3,0.0,False,1,2025-07-02 10:38:51,1
3300,2025-07-03 14:39:02,CCD,AMN,POST,I,DW369,0.2,Detection,Ramp,Auto,2.29,60.0,6,5,OFF,1.2,0.3,0.0,False,1,2025-07-02 10:38:51,1
3301,2025-07-03 14:39:31,CCD,AMN,POST,I,DW369,0.8,Detection,Ramp,Auto,8.59,60.0,6,5,OFF,1.2,0.3,0.0,False,1,2025-07-02 10:38:51,1
3302,2025-07-03 14:40:01,CCD,AMN,POST,I,DW369,1.8,Detection,Ramp,Auto,18.54,60.0,6,5,OFF,1.2,0.3,0.0,False,1,2025-07-02 10:38:51,1
3303,2025-07-03 14:40:08,CCD,AMN,POST,I,DW369,1.3,Detection,Ramp,Auto,13.23,60.0,6,5,OFF,1.2,0.3,0.0,False,1,2025-07-02 10:38:51,1
3304,2025-07-03 14:41:37,CCD,AMN,POST,I,DW369,1.7,Detection,Ramp,Auto,17.88,60.0,6,5,OFF,1.2,0.3,0.0,False,1,2025-07-02 10:38:51,1
3305,2025-07-03 14:42:09,CCD,AMN,POST,I,DW369,1.7,Detection,Ramp,Auto,18.21,60.0,6,5,OFF,1.2,0.3,0.0,False,1,2025-07-02 10:38:51,1
3306,2025-07-03 14:42:15,CCD,AMN,POST,I,DW369,0.0,Manual Stop,Ramp,Auto,0.3,60.0,6,5,OFF,1.2,0.3,0.0,False,0,2025-07-02 10:38:51,1
3307,2025-07-03 14:42:24,CCD,AMN,POST,I,DW369,2.3,Detection,Ramp,Auto,22.85,60.0,6,5,OFF,1.2,0.3,0.0,False,1,2025-07-02 10:38:51,1
3308,2025-07-03 14:44:27,CCD,AMN,POST,I,DW368,6.6,Detection,Ramp,Auto,60.0,60.0,6,5,OFF,1.2,0.3,0.0,False,1,2025-07-02 09:19:54,1
3309,2025-07-03 14:44:30,CCD,AMN,POST,I,DW368,1.1,Detection,Ramp,Auto,11.24,60.0,6,5,OFF,1.2,0.3,0.0,False,1,2025-07-02 09:19:54,1
3310,2025-07-03 14:44:41,CCD,AMN,POST,I,DW368,0.2,Detection,Ramp,Auto,2.62,60.0,6,5,OFF,1.2,0.3,0.0,False,1,2025-07-02 09:19:54,1
3311,2025-07-03 14:45:00,CCD,AMN,POST,I,DW368,0.2,Detection,Ramp,Auto,2.95,60.0,6,5,OFF,1.2,0.3,0.0,False,1,2025-07-02 09:19:54,1
3312,2025-07-03 14:45:07,CCD,AMN,POST,I,DW368,1.0,Detection,Ramp,Auto,10.58,60.0,6,5,OFF,1.2,0.3,0.0,False,1,2025-07-02 09:19:54,1
3313,2025-07-03 14:45:30,CCD,AMN,POST,I,DW368,0.2,Detection,Ramp,Auto,2.62,60.0,6,5,OFF,1.2,0.3,0.0,False,1,2025-07-02 09:19:54,1
3314,2025-07-03 14:45:41,CCD,AMN,POST,I,DW368,2.6,Detection,Ramp,Auto,26.83,60.0,6,5,OFF,1.2,0.3,0.0,False,1,2025-07-02 09:19:54,1
3315,2025-07-03 14:46:20,CCD,AMN,POST,I,DW368,0.2,Detection,Ramp,Auto,2.62,60.0,6,5,OFF,1.2,0.3,0.0,False,1,2025-07-02 09:19:54,1
3316,2025-07-03 14:46:36,CCD,AMN,POST,I,DW368,0.4,Detection,Ramp,Auto,4.61,60.0,6,5,OFF,1.2,0.3,0.0,False,1,2025-07-02 09:19:54,1
3317,2025-07-03 14:46:44,CCD,AMN,POST,I,DW368,0.4,Detection,Ramp,Auto,4.94,60.0,6,5,OFF,1.2,0.3,0.0,False,1,2025-07-02 09:19:54,1
3318,2025-07-03 14:48:10,CCD,AMN,POST,C,DW368,4.8,Detection,Ramp,Auto,47.73,60.0,6,5,OFF,1.2,0.3,0.0,False,1,2025-07-02 09:19:54,1
3319,2025-07-03 14:48:19,CCD,AMN,POST,C,DW368,1.7,Detection,Ramp,Auto,17.88,60.0,6,5,OFF,1.2,0.3,0.0,False,1,2025-07-02 09:19:54,1
3320,2025-07-03 14:48:31,CCD,AMN,POST,C,DW368,4.9,Detection,Ramp,Auto,49.06,60.0,6,5,OFF,1.2,0.3,0.0,False,1,2025-07-02 09:19:54,1
3321,2025-07-03 14:48:40,CCD,AMN,POST,C,DW368,4.5,Detection,Ramp,Auto,44.74,60.0,6,5,OFF,1.2,0.3,0.0,False,1,2025-07-02 09:19:54,1
3322,2025-07-03 14:49:02,CCD,AMN,POST,C,DW368,4.7,Detection,Ramp,Auto,47.4,60.0,6,5,OFF,1.2,0.3,0.0,False,1,2025-07-02 09:19:54,1
3323,2025-07-03 14:49:15,CCD,AMN,POST,C,DW368,4.4,Detection,Ramp,Auto,43.42,60.0,6,5,OFF,1.2,0.3,0.0,False,1,2025-07-02 09:19:54,1
3324,2025-07-03 14:49:22,CCD,AMN,POST,C,DW368,0.1,Detection,Ramp,Auto,1.96,60.0,6,5,OFF,1.2,0.3,0.0,False,1,2025-07-02 09:19:54,1
3325,2025-07-03 14:49:49,CCD,AMN,POST,C,DW368,5.4,Detection,Ramp,Auto,54.03,60.0,6,5,OFF,1.2,0.3,0.0,False,1,2025-07-02 09:19:54,1
3326,2025-07-03 14:49:58,CCD,AMN,POST,C,DW368,0.2,Detection,Ramp,Auto,2.62,60.0,6,5,OFF,1.2,0.3,0.0,False,1,2025-07-02 09:19:54,1
3327,2025-07-03 14:50:11,CCD,AMN,POST,C,DW368,2.9,Detection,Ramp,Auto,28.82,60.0,6,5,OFF,1.2,0.3,0.0,False,1,2025-07-02 09:19:54,1
3328,2025-07-03 14:50:18,CCD,AMN,POST,C,DW368,2.7,Detection,Ramp,Auto,27.17,60.0,6,5,OFF,1.2,0.3,0.0,False,1,2025-07-02 09:19:54,1
3329,2025-07-03 14:50:27,CCD,AMN,POST,C,DW368,1.9,Detection,Ramp,Auto,19.54,60.0,6,5,OFF,1.2,0.3,0.0,False,1,2025-07-02 09:19:54,1
3330,2025-07-03 14:50:55,CCD,AMN,POST,C,DW368,0.2,Detection,Ramp,Auto,2.95,60.0,6,5,OFF,1.2,0.3,0.0,False,1,2025-07-02 09:19:54,1
3331,2025-07-03 14:51:27,CCD,AMN,POST,C,DW368,5.3,Detection,Ramp,Auto,53.37,60.0,6,5,OFF,1.2,0.3,0.0,False,1,2025-07-02 09:19:54,1
3332,2025-07-03 14:51:38,CCD,AMN,POST,C,DW368,5.2,Detection,Ramp,Auto,51.38,60.0,6,5,OFF,1.2,0.3,0.0,False,1,2025-07-02 09:19:54,1
3333,2025-07-03 14:51:52,CCD,AMN,POST,C,DW368,6.3,Detection,Ramp,Auto,60.0,60.0,6,5,OFF,1.2,0.3,0.0,False,1,2025-07-02 09:19:54,1
3334,2025-07-03 14:52:06,CCD,AMN,POST,C,DW368,6.9,Detection,Ramp,Auto,60.0,60.0,6,5,OFF,1.2,0.3,0.0,False,1,2025-07-02 09:19:54,1
3335,2025-07-03 14:52:14,CCD,AMN,POST,C,DW368,3.6,Detection,Ramp,Auto,36.45,60.0,6,5,OFF,1.2,0.3,0.0,False,1,2025-07-02 09:19:54,1
3336,2025-07-03 14:52:22,CCD,AMN,POST,C,DW368,4.9,Detection,Ramp,Auto,48.72,60.0,6,5,OFF,1.2,0.3,0.0,False,1,2025-07-02 09:19:54,1
3337,2025-07-03 14:52:51,CCD,AMN,POST,I,DW368,1.4,Detection,Ramp,Auto,14.56,60.0,6,5,OFF,1.2,0.3,0.0,False,1,2025-07-02 09:19:54,1
3338,2025-07-03 14:52:56,CCD,AMN,POST,I,DW368,1.5,Detection,Ramp,Auto,15.56,60.0,6,5,OFF,1.2,0.3,0.0,False,1,2025-07-02 09:19:54,1
3339,2025-07-03 14:53:35,CCD,AMN,POST,I,DW368,3.5,Detection,Ramp,Auto,34.79,60.0,6,5,OFF,1.2,0.3,0.0,False,1,2025-07-02 09:19:54,1
3340,2025-07-03 14:53:45,CCD,AMN,POST,I,DW368,2.8,Detection,Ramp,Auto,27.5,60.0,6,5,OFF,1.2,0.3,0.0,False,1,2025-07-02 09:19:54,1
3341,2025-07-03 14:53:52,CCD,AMN,POST,I,DW368,2.4,Detection,Ramp,Auto,24.51,60.0,6,5,OFF,1.2,0.3,0.0,False,1,2025-07-02 09:19:54,1
3342,2025-07-03 14:54:03,CCD,AMN,POST,I,DW368,3.0,Detection,Ramp,Auto,30.81,60.0,6,5,OFF,1.2,0.3,0.0,False,1,2025-07-02 09:19:54,1
3343,2025-07-03 14:54:15,CCD,AMN,POST,I,DW368,2.9,Detection,Ramp,Auto,30.15,60.0,6,5,OFF,1.2,0.3,0.0,False,1,2025-07-02 09:19:54,1
3344,2025-07-03 14:54:21,CCD,AMN,POST,I,DW368,2.8,Detection,Ramp,Auto,27.83,60.0,6,5,OFF,1.2,0.3,0.0,False,1,2025-07-02 09:19:54,1
3345,2025-07-03 14:54:32,CCD,AMN,POST,I,DW368,3.0,Detection,Ramp,Auto,29.82,60.0,6,5,OFF,1.2,0.3,0.0,False,1,2025-07-02 09:19:54,1
3346,2025-07-03 14:56:10,CCD,AMN,POST,I,DW368,3.0,Detection,Ramp,Auto,31.15,60.0,6,5,OFF,1.2,0.3,0.0,False,1,2025-07-02 09:19:54,1
3347,2025-07-03 14:56:15,CCD,AMN,POST,I,DW368,0.8,Detection,Ramp,Auto,9.26,60.0,6,5,OFF,1.2,0.3,0.0,False,1,2025-07-02 09:19:54,1
3348,2025-07-03 14:56:28,CCD,AMN,POST,I,DW368,0.7,Detection,Ramp,Auto,7.93,60.0,6,5,OFF,1.2,0.3,0.0,False,1,2025-07-02 09:19:54,1
3349,2025-07-03 14:56:53,CCD,AMN,POST,I,DW368,1.7,Detection,Ramp,Auto,17.22,60.0,6,5,OFF,1.2,0.3,0.0,False,1,2025-07-02 09:19:54,1
3350,2025-07-03 14:57:10,CCD,AMN,POST,I,DW368,0.8,Detection,Ramp,Auto,8.59,60.0,6,5,OFF,1.2,0.3,0.0,False,1,2025-07-02 09:19:54,1
3351,2025-07-07 16:01:55,CCD,AMN,POST,I,DW368,1.5,Detection,Ramp,Auto,16.22,60.0,6,5,OFF,1.2,0.3,0.0,False,1,2025-07-02 09:19:54,5
3352,2025-07-07 16:02:14,CCD,AMN,POST,I,DW368,2.5,Detection,Ramp,Auto,25.84,60.0,6,5,OFF,1.2,0.3,0.0,False,1,2025-07-02 09:19:54,5
3353,2025-07-07 16:02:32,CCD,AMN,POST,I,DW368,0.7,Detection,Ramp,Auto,7.6,60.0,6,5,OFF,1.2,0.3,0.0,False,1,2025-07-02 09:19:54,5
3354,2025-07-07 16:03:04,CCD,AMN,POST,I,DW368,1.6,Detection,Ramp,Auto,15.89,60.0,6,5,OFF,1.2,0.3,0.0,False,1,2025-07-02 09:19:54,5
3355,2025-07-07 16:03:44,CCD,AMN,POST,I,DW368,3.4,Detection,Ramp,Auto,33.8,60.0,6,5,OFF,1.2,0.3,0.0,False,1,2025-07-02 09:19:54,5
3356,2025-07-07 16:03:52,CCD,AMN,POST,I,DW368,1.8,Detection,Ramp,Auto,18.87,60.0,6,5,OFF,1.2,0.3,0.0,False,1,2025-07-02 09:19:54,5
3357,2025-07-07 16:04:10,CCD,AMN,POST,I,DW368,3.1,Detection,Ramp,Auto,30.15,60.0,6,5,OFF,1.2,0.3,0.0,False,1,2025-07-02 09:19:54,5
3358,2025-07-07 16:04:20,CCD,AMN,POST,I,DW368,0.9,Detection,Ramp,Auto,8.92,60.0,6,5,OFF,1.2,0.3,0.0,False,1,2025-07-02 09:19:54,5
3359,2025-07-07 16:04:40,CCD,AMN,POST,I,DW368,2.5,Detection,Ramp,Auto,26.17,60.0,6,5,OFF,1.2,0.3,0.0,False,1,2025-07-02 09:19:54,5
3360,2025-07-07 16:07:20,CCD,AMN,POST,I,DW368,1.3,Detection,Ramp,Auto,13.9,60.0,6,5,OFF,1.2,0.3,0.0,False,1,2025-07-02 09:19:54,5
3361,2025-07-07 16:07:36,CCD,AMN,POST,I,DW368,2.1,Detection,Ramp,Auto,21.53,60.0,6,5,OFF,1.2,0.3,0.0,False,1,2025-07-02 09:19:54,5
3362,2025-07-07 16:07:59,CCD,AMN,POST,I,DW368,1.1,Detection,Ramp,Auto,11.58,60.0,6,5,OFF,1.2,0.3,0.0,False,1,2025-07-02 09:19:54,5
3363,2025-07-07 16:08:14,CCD,AMN,POST,I,DW368,1.8,Detection,Ramp,Auto,18.87,60.0,6,5,OFF,1.2,0.3,0.0,False,1,2025-07-02 09:19:54,5
3364,2025-07-07 16:08:20,CCD,AMN,POST,I,DW368,1.0,Detection,Ramp,Auto,9.92,60.0,6,5,OFF,1.2,0.3,0.0,False,1,2025-07-02 09:19:54,5
3365,2025-07-07 16:08:44,CCD,AMN,POST,I,DW368,1.0,Detection,Ramp,Auto,10.91,60.0,6,5,OFF,1.2,0.3,0.0,False,1,2025-07-02 09:19:54,5
3366,2025-07-07 16:08:54,CCD,AMN,POST,I,DW368,1.0,Detection,Ramp,Auto,10.58,60.0,6,5,OFF,1.2,0.3,0.0,False,1,2025-07-02 09:19:54,5
3367,2025-07-07 16:10:20,CCD,AMN,POST,I,DW368,2.6,Detection,Ramp,Auto,25.84,60.0,6,5,OFF,1.2,0.3,0.0,False,1,2025-07-02 09:19:54,5
3368,2025-07-07 16:10:25,CCD,AMN,POST,I,DW368,1.9,Detection,Ramp,Auto,19.87,60.0,6,5,OFF,1.2,0.3,0.0,False,1,2025-07-02 09:19:54,5
3369,2025-07-07 16:10:36,CCD,AMN,POST,I,DW368,0.2,Detection,Ramp,Auto,2.29,60.0,6,5,OFF,1.2,0.3,0.0,False,1,2025-07-02 09:19:54,5
3370,2025-07-07 16:10:55,CCD,AMN,POST,I,DW368,0.6,Detection,Ramp,Auto,6.93,60.0,6,5,OFF,1.2,0.3,0.0,False,1,2025-07-02 09:19:54,5
3371,2025-07-07 16:11:47,CCD,AMN,POST,I,DW368,1.0,Detection,Ramp,Auto,10.91,60.0,6,5,OFF,1.2,0.3,0.0,False,1,2025-07-02 09:19:54,5
3372,2025-07-07 16:13:38,CCD,AMN,POST,I,DW368,0.2,Detection,Ramp,Auto,2.95,60.0,6,5,OFF,1.2,0.3,0.0,False,1,2025-07-02 09:19:54,5
3373,2025-07-07 16:13:46,CCD,AMN,POST,I,DW368,1.6,Detection,Ramp,Auto,16.55,60.0,6,5,OFF,1.2,0.3,0.0,False,1,2025-07-02 09:19:54,5
3374,2025-07-07 16:15:27,CCD,AMN,POST,I,DW368,1.0,Detection,Ramp,Auto,10.91,60.0,6,5,OFF,1.2,0.3,0.0,False,1,2025-07-02 09:19:54,5
3375,2025-07-07 16:15:31,CCD,AMN,POST,I,DW368,1.7,Detection,Ramp,Auto,17.88,60.0,6,5,OFF,1.2,0.3,0.0,False,1,2025-07-02 09:19:54,5
3376,2025-07-07 16:16:41,CCD,AMN,POST,I,DW369,1.4,Detection,Ramp,Auto,14.23,60.0,6,5,OFF,1.2,0.3,0.0,False,1,2025-07-02 10:38:51,5
3377,2025-07-07 16:17:03,CCD,AMN,POST,I,DW369,1.9,Detection,Ramp,Auto,19.2,60.0,6,5,OFF,1.2,0.3,0.0,False,1,2025-07-02 10:38:51,5
3378,2025-07-07 16:17:25,CCD,AMN,POST,I,DW369,1.8,Detection,Ramp,Auto,18.87,60.0,6,5,OFF,1.2,0.3,0.0,False,1,2025-07-02 10:38:51,5
3379,2025-07-07 16:17:49,CCD,AMN,POST,I,DW369,0.5,Detection,Ramp,Auto,6.27,60.0,6,5,OFF,1.2,0.3,0.0,False,1,2025-07-02 10:38:51,5
3380,2025-07-07 16:18:12,CCD,AMN,POST,I,DW369,0.2,Detection,Ramp,Auto,2.62,60.0,6,5,OFF,1.2,0.3,0.0,False,1,2025-07-02 10:38:51,5
3381,2025-07-07 16:18:20,CCD,AMN,POST,I,DW369,0.0,Detection,Ramp,Auto,0.3,60.0,6,5,OFF,1.2,0.3,0.0,True,0,2025-07-02 10:38:51,5
3382,2025-07-07 16:18:48,CCD,AMN,POST,I,DW369,2.1,Detection,Ramp,Auto,20.86,60.0,6,5,OFF,1.2,0.3,0.0,False,1,2025-07-02 10:38:51,5
3383,2025-07-07 16:19:15,CCD,AMN,POST,I,DW369,1.4,Detection,Ramp,Auto,14.23,60.0,6,5,OFF,1.2,0.3,0.0,False,1,2025-07-02 10:38:51,5
3384,2025-07-07 16:19:21,CCD,AMN,POST,I,DW369,1.2,Detection,Ramp,Auto,12.57,60.0,6,5,OFF,1.2,0.3,0.0,False,1,2025-07-02 10:38:51,5
3385,2025-07-07 16:19:34,CCD,AMN,POST,I,DW369,0.2,Detection,Ramp,Auto,2.29,60.0,6,5,OFF,1.2,0.3,0.0,False,1,2025-07-02 10:38:51,5
3386,2025-07-07 16:20:01,CCD,AMN,POST,I,DW369,0.6,Detection,Ramp,Auto,6.93,60.0,6,5,OFF,1.2,0.3,0.0,False,1,2025-07-02 10:38:51,5
3387,2025-07-07 16:20:54,CCD,AMN,POST,I,DW369,1.0,Detection,Ramp,Auto,10.25,60.0,6,5,OFF,1.2,0.3,0.0,False,1,2025-07-02 10:38:51,5
3388,2025-07-07 16:21:25,CCD,AMN,POST,I,DW369,3.5,Detection,Ramp,Auto,35.13,60.0,6,5,OFF,1.2,0.3,0.0,False,1,2025-07-02 10:38:51,5
3389,2025-07-07 16:21:39,CCD,AMN,POST,I,DW369,1.0,Detection,Ramp,Auto,10.58,60.0,6,5,OFF,1.2,0.3,0.0,False,1,2025-07-02 10:38:51,5
3390,2025-07-07 16:23:16,CCD,AMN,POST,I,DW369,1.3,Detection,Ramp,Auto,12.9,60.0,6,5,OFF,1.2,0.3,0.0,False,1,2025-07-02 10:38:51,5
3391,2025-07-07 16:23:28,CCD,AMN,POST,I,DW369,2.8,Detection,Ramp,Auto,28.82,60.0,6,5,OFF,1.2,0.3,0.0,False,1,2025-07-02 10:38:51,5
3392,2025-07-07 16:23:57,CCD,AMN,POST,I,DW369,2.4,Detection,Ramp,Auto,24.18,60.0,6,5,OFF,1.2,0.3,0.0,False,1,2025-07-02 10:38:51,5
3393,2025-07-07 16:24:35,CCD,AMN,POST,I,DW369,0.2,Detection,Ramp,Auto,2.62,60.0,6,5,OFF,1.2,0.3,0.0,False,1,2025-07-02 10:38:51,5
3394,2025-07-07 16:24:53,CCD,AMN,POST,I,DW369,1.3,Detection,Ramp,Auto,14.23,60.0,6,5,OFF,1.2,0.3,0.0,False,1,2025-07-02 10:38:51,5
3395,2025-07-07 16:25:33,CCD,AMN,POST,I,DW369,1.7,Detection,Ramp,Auto,17.88,60.0,6,5,OFF,1.2,0.3,0.0,False,1,2025-07-02 10:38:51,5
3396,2025-07-07 16:26:10,CCD,AMN,POST,I,DW369,0.7,Detection,Ramp,Auto,7.93,60.0,6,5,OFF,1.2,0.3,0.0,False,1,2025-07-02 10:38:51,5
3397,2025-07-07 16:26:24,CCD,AMN,POST,I,DW369,4.2,Detection,Ramp,Auto,41.76,60.0,6,5,OFF,1.2,0.3,0.0,False,1,2025-07-02 10:38:51,5
3398,2025-07-07 16:26:50,CCD,AMN,POST,I,DW369,2.1,Detection,Ramp,Auto,21.19,60.0,6,5,OFF,1.2,0.3,0.0,False,1,2025-07-02 10:38:51,5
3399,2025-07-07 16:28:15,CCD,AMN,POST,I,DW369,0.9,Detection,Ramp,Auto,9.26,60.0,6,5,OFF,1.2,0.3,0.0,False,1,2025-07-02 10:38:51,5
3400,2025-07-07 16:28:38,CCD,AMN,POST,I,DW369,1.3,Detection,Ramp,Auto,13.9,60.0,6,5,OFF,1.2,0.3,0.0,False,1,2025-07-02 10:38:51,5
3401,2025-07-07 16:28:47,CCD,AMN,POST,I,DW369,2.2,Detection,Ramp,Auto,21.86,60.0,6,5,OFF,1.2,0.3,0.0,False,1,2025-07-02 10:38:51,5
3402,2025-07-07 16:30:27,CCD,AMN,POST,I,DW369,0.8,Detection,Ramp,Auto,8.92,60.0,6,5,OFF,1.2,0.3,0.0,False,1,2025-07-02 10:38:51,5
3403,2025-07-07 16:30:47,CCD,AMN,POST,I,DW369,0.9,Detection,Ramp,Auto,9.92,60.0,6,5,OFF,1.2,0.3,0.0,False,1,2025-07-02 10:38:51,5
3404,2025-07-07 16:31:10,CCD,AMN,POST,I,DW369,2.6,Detection,Ramp,Auto,26.17,60.0,6,5,OFF,1.2,0.3,0.0,False,1,2025-07-02 10:38:51,5
3405,2025-07-07 16:31:46,CCD,AMN,POST,I,DW369,0.2,Detection,Ramp,Auto,2.95,60.0,6,5,OFF,1.2,0.3,0.0,False,1,2025-07-02 10:38:51,5
3406,2025-07-07 16:31:53,CCD,AMN,POST,I,DW369,0.0,Detection,Ramp,Auto,0.63,60.0,6,5,OFF,1.2,0.3,0.0,True,0,2025-07-02 10:38:51,5
3407,2025-07-07 16:32:21,CCD,AMN,POST,I,DW369,3.3,Detection,Ramp,Auto,32.8,60.0,6,5,OFF,1.2,0.3,0.0,False,1,2025-07-02 10:38:51,5
3408,2025-07-07 16:32:34,CCD,AMN,POST,I,DW369,1.3,Detection,Ramp,Auto,13.23,60.0,6,5,OFF,1.2,0.3,0.0,False,1,2025-07-02 10:38:51,5
3409,2025-07-07 16:32:44,CCD,AMN,POST,I,DW369,0.5,Detection,Ramp,Auto,5.61,60.0,6,5,OFF,1.2,0.3,0.0,False,1,2025-07-02 10:38:51,5
3410,2025-07-07 16:33:26,CCD,AMN,POST,I,DW369,1.6,Detection,Ramp,Auto,16.88,60.0,6,5,OFF,1.2,0.3,0.0,False,1,2025-07-02 10:38:51,5
3411,2025-07-10 12:20:36,CCD,AMN,POST,I,DW368,1.3,Detection,Ramp,Auto,13.23,60.0,6,5,OFF,1.2,0.3,0.0,False,1,2025-07-02 09:19:54,8
3412,2025-07-10 12:20:53,CCD,AMN,POST,I,DW368,0.2,Detection,Ramp,Auto,2.62,60.0,6,5,OFF,1.2,0.3,0.0,False,1,2025-07-02 09:19:54,8
3413,2025-07-10 12:21:07,CCD,AMN,POST,I,DW368,1.4,Detection,Ramp,Auto,14.89,60.0,6,5,OFF,1.2,0.3,0.0,False,1,2025-07-02 09:19:54,8
3414,2025-07-10 12:21:42,CCD,AMN,POST,I,DW368,0.3,Detection,Ramp,Auto,4.28,60.0,6,5,OFF,1.2,0.3,0.0,False,1,2025-07-02 09:19:54,8
3415,2025-07-10 12:21:50,CCD,AMN,POST,I,DW368,0.5,Detection,Ramp,Auto,5.61,60.0,6,5,OFF,1.2,0.3,0.0,False,1,2025-07-02 09:19:54,8
3416,2025-07-10 12:22:43,CCD,AMN,POST,I,DW368,0.7,Detection,Ramp,Auto,7.93,60.0,6,5,OFF,1.2,0.3,0.0,False,1,2025-07-02 09:19:54,8
3417,2025-07-10 12:22:51,CCD,AMN,POST,I,DW368,0.9,Detection,Ramp,Auto,9.59,60.0,6,5,OFF,1.2,0.3,0.0,False,1,2025-07-02 09:19:54,8
3418,2025-07-10 12:23:00,CCD,AMN,POST,I,DW368,0.8,Detection,Ramp,Auto,8.59,60.0,6,5,OFF,1.2,0.3,0.0,False,1,2025-07-02 09:19:54,8
3419,2025-07-10 12:23:25,CCD,AMN,POST,I,DW368,1.8,Detection,Ramp,Auto,18.54,60.0,6,5,OFF,1.2,0.3,0.0,False,1,2025-07-02 09:19:54,8
3420,2025-07-10 12:23:48,CCD,AMN,POST,I,DW368,1.7,Detection,Ramp,Auto,17.55,60.0,6,5,OFF,1.2,0.3,0.0,False,1,2025-07-02 09:19:54,8
3421,2025-07-10 12:23:56,CCD,AMN,POST,I,DW368,1.6,Detection,Ramp,Auto,16.55,60.0,6,5,OFF,1.2,0.3,0.0,False,1,2025-07-02 09:19:54,8
3422,2025-07-10 12:24:02,CCD,AMN,POST,I,DW368,1.8,Detection,Ramp,Auto,17.55,60.0,6,5,OFF,1.2,0.3,0.0,False,1,2025-07-02 09:19:54,8
3423,2025-07-10 12:24:19,CCD,AMN,POST,I,DW368,1.5,Detection,Ramp,Auto,14.89,60.0,6,5,OFF,1.2,0.3,0.0,False,1,2025-07-02 09:19:54,8
3424,2025-07-10 12:24:30,CCD,AMN,POST,I,DW368,2.1,Detection,Ramp,Auto,20.86,60.0,6,5,OFF,1.2,0.3,0.0,False,1,2025-07-02 09:19:54,8
3425,2025-07-10 12:25:21,CCD,AMN,POST,I,DW368,1.2,Detection,Ramp,Auto,13.23,60.0,6,5,OFF,1.2,0.3,0.0,False,1,2025-07-02 09:19:54,8
3426,2025-07-10 12:25:30,CCD,AMN,POST,I,DW368,1.0,Detection,Ramp,Auto,10.91,60.0,6,5,OFF,1.2,0.3,0.0,False,1,2025-07-02 09:19:54,8
3427,2025-07-10 12:25:45,CCD,AMN,POST,I,DW368,1.2,Detection,Ramp,Auto,12.24,60.0,6,5,OFF,1.2,0.3,0.0,False,1,2025-07-02 09:19:54,8
3428,2025-07-10 12:25:53,CCD,AMN,POST,I,DW368,0.1,Detection,Ramp,Auto,2.29,60.0,6,5,OFF,1.2,0.3,0.0,False,1,2025-07-02 09:19:54,8
3429,2025-07-10 12:25:58,CCD,AMN,POST,I,DW368,0.5,Detection,Ramp,Auto,6.27,60.0,6,5,OFF,1.2,0.3,0.0,False,1,2025-07-02 09:19:54,8
3430,2025-07-10 12:26:02,CCD,AMN,POST,I,DW368,0.5,Detection,Ramp,Auto,5.94,60.0,6,5,OFF,1.2,0.3,0.0,False,1,2025-07-02 09:19:54,8
3431,2025-07-10 12:26:19,CCD,AMN,POST,I,DW368,2.4,Detection,Ramp,Auto,24.51,60.0,6,5,OFF,1.2,0.3,0.0,False,1,2025-07-02 09:19:54,8
3432,2025-07-10 12:26:26,CCD,AMN,POST,I,DW368,1.4,Detection,Ramp,Auto,15.23,60.0,6,5,OFF,1.2,0.3,0.0,False,1,2025-07-02 09:19:54,8
3433,2025-07-10 12:26:45,CCD,AMN,POST,I,DW368,1.3,Detection,Ramp,Auto,13.23,60.0,6,5,OFF,1.2,0.3,0.0,False,1,2025-07-02 09:19:54,8
3434,2025-07-10 12:26:50,CCD,AMN,POST,I,DW368,0.1,Detection,Ramp,Auto,1.96,60.0,6,5,OFF,1.2,0.3,0.0,False,1,2025-07-02 09:19:54,8
3435,2025-07-10 12:27:01,CCD,AMN,POST,I,DW368,2.7,Detection,Ramp,Auto,27.17,60.0,6,5,OFF,1.2,0.3,0.0,False,1,2025-07-02 09:19:54,8
3436,2025-07-10 12:27:13,CCD,AMN,POST,I,DW368,0.7,Detection,Ramp,Auto,7.6,60.0,6,5,OFF,1.2,0.3,0.0,False,1,2025-07-02 09:19:54,8
3437,2025-07-10 12:27:32,CCD,AMN,POST,I,DW368,0.7,Detection,Ramp,Auto,7.6,60.0,6,5,OFF,1.2,0.3,0.0,False,1,2025-07-02 09:19:54,8
3438,2025-07-10 12:27:43,CCD,AMN,POST,I,DW368,0.2,Detection,Ramp,Auto,2.62,60.0,6,5,OFF,1.2,0.3,0.0,False,1,2025-07-02 09:19:54,8
3439,2025-07-10 12:27:48,CCD,AMN,POST,I,DW368,0.5,Detection,Ramp,Auto,5.61,60.0,6,5,OFF,1.2,0.3,0.0,False,1,2025-07-02 09:19:54,8
3440,2025-07-10 12:28:10,CCD,AMN,POST,I,DW368,0.9,Detection,Ramp,Auto,9.26,60.0,6,5,OFF,1.2,0.3,0.0,False,1,2025-07-02 09:19:54,8
3441,2025-07-10 12:28:31,CCD,AMN,POST,I,DW368,0.2,Detection,Ramp,Auto,2.29,60.0,6,5,OFF,1.2,0.3,0.0,False,1,2025-07-02 09:19:54,8
3442,2025-07-10 12:28:38,CCD,AMN,POST,I,DW368,0.7,Detection,Ramp,Auto,8.26,60.0,6,5,OFF,1.2,0.3,0.0,False,1,2025-07-02 09:19:54,8
3443,2025-07-10 12:29:00,CCD,AMN,POST,I,DW368,0.9,Detection,Ramp,Auto,10.25,60.0,6,5,OFF,1.2,0.3,0.0,False,1,2025-07-02 09:19:54,8
3444,2025-07-10 12:29:38,CCD,AMN,POST,I,DW368,1.1,Detection,Ramp,Auto,10.91,60.0,6,5,OFF,1.2,0.3,0.0,False,1,2025-07-02 09:19:54,8
3445,2025-07-10 12:29:46,CCD,AMN,POST,I,DW368,0.6,Detection,Ramp,Auto,7.26,60.0,6,5,OFF,1.2,0.3,0.0,False,1,2025-07-02 09:19:54,8
3446,2025-07-10 12:30:59,CCD,AMN,POST,I,DW368,0.8,Detection,Ramp,Auto,8.59,60.0,6,5,OFF,1.2,0.3,0.0,False,1,2025-07-02 09:19:54,8
3447,2025-07-10 12:32:13,CCD,AMN,POST,I,DW368,2.0,Detection,Ramp,Auto,21.19,60.0,6,5,OFF,1.2,0.3,0.0,False,1,2025-07-02 09:19:54,8
3448,2025-07-10 12:32:56,CCD,AMN,POST,I,DW369,2.0,Detection,Ramp,Auto,20.53,60.0,6,5,OFF,1.2,0.3,0.0,False,1,2025-07-02 10:38:51,8
3449,2025-07-10 12:33:05,CCD,AMN,POST,I,DW369,1.8,Detection,Ramp,Auto,18.54,60.0,6,5,OFF,1.2,0.3,0.0,False,1,2025-07-02 10:38:51,8
3450,2025-07-10 12:33:18,CCD,AMN,POST,I,DW369,0.4,Detection,Ramp,Auto,4.28,60.0,6,5,OFF,1.2,0.3,0.0,False,1,2025-07-02 10:38:51,8
3451,2025-07-10 12:33:25,CCD,AMN,POST,I,DW369,0.7,Detection,Ramp,Auto,8.26,60.0,6,5,OFF,1.2,0.3,0.0,False,1,2025-07-02 10:38:51,8
3452,2025-07-10 12:33:39,CCD,AMN,POST,I,DW369,2.3,Detection,Ramp,Auto,23.85,60.0,6,5,OFF,1.2,0.3,0.0,False,1,2025-07-02 10:38:51,8
3453,2025-07-10 12:33:51,CCD,AMN,POST,I,DW369,0.9,Detection,Ramp,Auto,9.92,60.0,6,5,OFF,1.2,0.3,0.0,False,1,2025-07-02 10:38:51,8
3454,2025-07-10 12:33:58,CCD,AMN,POST,I,DW369,1.9,Detection,Ramp,Auto,20.2,60.0,6,5,OFF,1.2,0.3,0.0,False,1,2025-07-02 10:38:51,8
3455,2025-07-10 12:34:08,CCD,AMN,POST,I,DW369,0.8,Detection,Ramp,Auto,8.92,60.0,6,5,OFF,1.2,0.3,0.0,False,1,2025-07-02 10:38:51,8
3456,2025-07-10 12:34:17,CCD,AMN,POST,I,DW369,2.3,Detection,Ramp,Auto,22.85,60.0,6,5,OFF,1.2,0.3,0.0,False,1,2025-07-02 10:38:51,8
3457,2025-07-10 12:34:32,CCD,AMN,POST,I,DW369,0.9,Detection,Ramp,Auto,9.26,60.0,6,5,OFF,1.2,0.3,0.0,False,1,2025-07-02 10:38:51,8
3458,2025-07-10 12:34:40,CCD,AMN,POST,I,DW369,2.4,Detection,Ramp,Auto,23.85,60.0,6,5,OFF,1.2,0.3,0.0,False,1,2025-07-02 10:38:51,8
3459,2025-07-10 12:34:47,CCD,AMN,POST,I,DW369,0.7,Detection,Ramp,Auto,7.6,60.0,6,5,OFF,1.2,0.3,0.0,False,1,2025-07-02 10:38:51,8
3460,2025-07-10 12:35:10,CCD,AMN,POST,I,DW369,1.6,Detection,Ramp,Auto,16.55,60.0,6,5,OFF,1.2,0.3,0.0,False,1,2025-07-02 10:38:51,8
3461,2025-07-10 12:35:20,CCD,AMN,POST,I,DW369,1.7,Detection,Ramp,Auto,17.55,60.0,6,5,OFF,1.2,0.3,0.0,False,1,2025-07-02 10:38:51,8
3462,2025-07-10 12:35:30,CCD,AMN,POST,I,DW369,1.2,Detection,Ramp,Auto,12.9,60.0,6,5,OFF,1.2,0.3,0.0,False,1,2025-07-02 10:38:51,8
3463,2025-07-10 12:35:38,CCD,AMN,POST,I,DW369,1.9,Detection,Ramp,Auto,20.2,60.0,6,5,OFF,1.2,0.3,0.0,False,1,2025-07-02 10:38:51,8
3464,2025-07-10 12:35:46,CCD,AMN,POST,I,DW369,3.2,Detection,Ramp,Auto,32.8,60.0,6,5,OFF,1.2,0.3,0.0,False,1,2025-07-02 10:38:51,8
3465,2025-07-10 12:35:57,CCD,AMN,POST,I,DW369,2.1,Detection,Ramp,Auto,21.53,60.0,6,5,OFF,1.2,0.3,0.0,False,1,2025-07-02 10:38:51,8
3466,2025-07-10 12:36:06,CCD,AMN,POST,I,DW369,3.4,Detection,Ramp,Auto,34.46,60.0,6,5,OFF,1.2,0.3,0.0,False,1,2025-07-02 10:38:51,8
3467,2025-07-10 12:36:15,CCD,AMN,POST,I,DW369,2.0,Detection,Ramp,Auto,20.86,60.0,6,5,OFF,1.2,0.3,0.0,False,1,2025-07-02 10:38:51,8
3468,2025-07-10 12:36:28,CCD,AMN,POST,I,DW369,1.2,Detection,Ramp,Auto,12.9,60.0,6,5,OFF,1.2,0.3,0.0,False,1,2025-07-02 10:38:51,8
3469,2025-07-10 12:36:36,CCD,AMN,POST,I,DW369,1.4,Detection,Ramp,Auto,14.23,60.0,6,5,OFF,1.2,0.3,0.0,False,1,2025-07-02 10:38:51,8
3470,2025-07-10 12:36:43,CCD,AMN,POST,I,DW369,3.5,Detection,Ramp,Auto,34.79,60.0,6,5,OFF,1.2,0.3,0.0,False,1,2025-07-02 10:38:51,8
3471,2025-07-10 12:36:53,CCD,AMN,POST,I,DW369,1.7,Detection,Ramp,Auto,17.55,60.0,6,5,OFF,1.2,0.3,0.0,False,1,2025-07-02 10:38:51,8
3472,2025-07-10 12:38:24,CCD,AMN,POST,I,DW369,0.8,Detection,Ramp,Auto,9.26,60.0,6,5,OFF,1.2,0.3,0.0,False,1,2025-07-02 10:38:51,8
3473,2025-07-10 12:38:28,CCD,AMN,POST,I,DW369,0.4,Manual Stop,Ramp,Auto,3.62,60.0,6,5,OFF,1.2,0.3,0.0,True,0,2025-07-02 10:38:51,8
3474,2025-07-10 12:38:33,CCD,AMN,POST,I,DW369,1.6,Detection,Ramp,Auto,16.22,60.0,6,5,OFF,1.2,0.3,0.0,False,1,2025-07-02 10:38:51,8
3475,2025-07-10 12:38:41,CCD,AMN,POST,I,DW369,2.3,Detection,Ramp,Auto,23.52,60.0,6,5,OFF,1.2,0.3,0.0,False,1,2025-07-02 10:38:51,8
3476,2025-07-15 14:48:07,CCD,AMN,POST,I,DW368,0.2,Manual Stop,Ramp,Auto,2.29,60.0,6,5,OFF,1.2,0.3,0.0,True,0,2025-07-02 09:19:54,13
3477,2025-07-15 14:48:10,CCD,AMN,POST,I,DW368,0.2,Manual Stop,Ramp,Auto,2.29,60.0,6,5,OFF,1.2,0.3,0.0,True,0,2025-07-02 09:19:54,13
3478,2025-07-15 14:48:28,CCD,AMN,POST,I,DW368,0.4,Detection,Ramp,Auto,4.28,60.0,6,5,OFF,1.2,0.3,0.0,False,1,2025-07-02 09:19:54,13
3479,2025-07-15 14:48:40,CCD,AMN,POST,I,DW368,2.3,Detection,Ramp,Auto,23.52,60.0,6,5,OFF,1.2,0.3,0.0,False,1,2025-07-02 09:19:54,13
3480,2025-07-15 14:49:20,CCD,AMN,POST,I,DW369,3.7,Detection,Ramp,Auto,37.12,60.0,6,5,OFF,1.2,0.3,0.0,False,1,2025-07-02 10:38:51,13
3481,2025-07-15 14:49:31,CCD,AMN,POST,I,DW369,2.6,Detection,Ramp,Auto,26.5,60.0,6,5,OFF,1.2,0.3,0.0,False,1,2025-07-02 10:38:51,13
3482,2025-07-15 14:49:49,CCD,AMN,POST,I,DW369,2.8,Detection,Ramp,Auto,28.16,60.0,6,5,OFF,1.2,0.3,0.0,False,1,2025-07-02 10:38:51,13
3483,2025-07-15 14:50:26,CCD,AMN,POST,I,DW369,0.2,Detection,Ramp,Auto,2.29,60.0,6,5,OFF,1.2,0.3,0.0,False,1,2025-07-02 10:38:51,13
3484,2025-07-15 14:51:21,CCD,AMN,POST,I,DW369,2.3,Detection,Ramp,Auto,23.52,60.0,6,5,OFF,1.2,0.3,0.0,False,1,2025-07-02 10:38:51,13
3485,2025-07-15 14:51:57,CCD,AMN,POST,I,DW369,3.8,Detection,Ramp,Auto,38.44,60.0,6,5,OFF,1.2,0.3,0.0,False,1,2025-07-02 10:38:51,13
3486,2025-07-15 14:52:13,CCD,AMN,POST,I,DW369,1.7,Detection,Ramp,Auto,17.55,60.0,6,5,OFF,1.2,0.3,0.0,False,1,2025-07-02 10:38:51,13
3487,2025-07-15 14:53:49,CCD,AMN,POST,I,DW369,2.9,Detection,Ramp,Auto,28.82,60.0,6,5,OFF,1.2,0.3,0.0,False,1,2025-07-02 10:38:51,13
3488,2025-07-15 14:54:03,CCD,AMN,POST,I,DW369,3.5,Detection,Ramp,Auto,34.79,60.0,6,5,OFF,1.2,0.3,0.0,False,1,2025-07-02 10:38:51,13
3489,2025-07-15 14:54:37,CCD,AMN,POST,I,DW369,2.2,Detection,Ramp,Auto,22.19,60.0,6,5,OFF,1.2,0.3,0.0,False,1,2025-07-02 10:38:51,13
3490,2025-07-15 14:54:53,CCD,AMN,POST,I,DW369,1.7,Detection,Ramp,Auto,17.22,60.0,6,5,OFF,1.2,0.3,0.0,False,1,2025-07-02 10:38:51,13
3491,2025-07-15 14:55:20,CCD,AMN,POST,I,DW369,3.7,Detection,Ramp,Auto,37.45,60.0,6,5,OFF,1.2,0.3,0.0,False,1,2025-07-02 10:38:51,13
3492,2025-07-15 14:55:34,CCD,AMN,POST,I,DW369,1.5,Detection,Ramp,Auto,15.89,60.0,6,5,OFF,1.2,0.3,0.0,False,1,2025-07-02 10:38:51,13
3493,2025-07-15 14:55:54,CCD,AMN,POST,I,DW369,2.1,Detection,Ramp,Auto,21.86,60.0,6,5,OFF,1.2,0.3,0.0,False,1,2025-07-02 10:38:51,13
3494,2025-07-15 14:56:03,CCD,AMN,POST,I,DW369,0.9,Detection,Ramp,Auto,8.92,60.0,6,5,OFF,1.2,0.3,0.0,False,1,2025-07-02 10:38:51,13
3495,2025-07-15 14:56:19,CCD,AMN,POST,I,DW369,0.1,Detection,Ramp,Auto,2.29,60.0,6,5,OFF,1.2,0.3,0.0,False,1,2025-07-02 10:38:51,13
3496,2025-07-15 14:56:28,CCD,AMN,POST,I,DW369,4.1,Detection,Ramp,Auto,41.1,60.0,6,5,OFF,1.2,0.3,0.0,False,1,2025-07-02 10:38:51,13
3497,2025-07-15 14:56:40,CCD,AMN,POST,I,DW369,3.3,Detection,Ramp,Auto,33.47,60.0,6,5,OFF,1.2,0.3,0.0,False,1,2025-07-02 10:38:51,13
3498,2025-07-15 14:56:46,CCD,AMN,POST,I,DW369,0.1,Detection,Ramp,Auto,1.29,60.0,6,5,OFF,1.2,0.3,0.0,False,1,2025-07-02 10:38:51,13
3499,2025-07-15 14:56:57,CCD,AMN,POST,I,DW369,3.0,Detection,Ramp,Auto,30.15,60.0,6,5,OFF,1.2,0.3,0.0,False,1,2025-07-02 10:38:51,13
3500,2025-07-15 14:57:13,CCD,AMN,POST,I,DW369,1.4,Detection,Ramp,Auto,15.23,60.0,6,5,OFF,1.2,0.3,0.0,False,1,2025-07-02 10:38:51,13
3501,2025-07-15 14:57:18,CCD,AMN,POST,I,DW369,0.0,Detection,Ramp,Auto,0.3,60.0,6,5,OFF,1.2,0.3,0.0,True,0,2025-07-02 10:38:51,13
3502,2025-07-15 14:57:31,CCD,AMN,POST,I,DW369,2.5,Detection,Ramp,Auto,24.84,60.0,6,5,OFF,1.2,0.3,0.0,False,1,2025-07-02 10:38:51,13
3503,2025-07-15 14:57:52,CCD,AMN,POST,I,DW369,2.0,Detection,Ramp,Auto,20.86,60.0,6,5,OFF,1.2,0.3,0.0,False,1,2025-07-02 10:38:51,13
3504,2025-07-15 14:58:08,CCD,AMN,POST,I,DW369,2.6,Detection,Ramp,Auto,26.5,60.0,6,5,OFF,1.2,0.3,0.0,False,1,2025-07-02 10:38:51,13
3505,2025-07-15 14:58:19,CCD,AMN,POST,I,DW369,3.9,Detection,Ramp,Auto,39.44,60.0,6,5,OFF,1.2,0.3,0.0,False,1,2025-07-02 10:38:51,13
3506,2025-07-15 14:58:26,CCD,AMN,POST,I,DW369,0.0,Detection,Ramp,Auto,0.3,60.0,6,5,OFF,1.2,0.3,0.0,True,0,2025-07-02 10:38:51,13
3507,2025-07-15 14:58:40,CCD,AMN,POST,I,DW369,0.5,Detection,Ramp,Auto,5.94,60.0,6,5,OFF,1.2,0.3,0.0,False,1,2025-07-02 10:38:51,13
3508,2025-07-15 14:58:51,CCD,AMN,POST,I,DW369,0.4,Detection,Ramp,Auto,4.61,60.0,6,5,OFF,1.2,0.3,0.0,False,1,2025-07-02 10:38:51,13
3509,2025-07-15 14:58:59,CCD,AMN,POST,I,DW369,2.1,Detection,Ramp,Auto,21.19,60.0,6,5,OFF,1.2,0.3,0.0,False,1,2025-07-02 10:38:51,13
3510,2025-07-15 14:59:13,CCD,AMN,POST,I,DW369,2.1,Detection,Ramp,Auto,20.86,60.0,6,5,OFF,1.2,0.3,0.0,False,1,2025-07-02 10:38:51,13
3511,2025-07-15 14:59:38,CCD,AMN,POST,I,DW369,1.7,Detection,Ramp,Auto,16.88,60.0,6,5,OFF,1.2,0.3,0.0,False,1,2025-07-02 10:38:51,13
3512,2025-07-15 14:59:54,CCD,AMN,POST,I,DW369,7.6,Detection,Ramp,Auto,60.0,60.0,6,5,OFF,1.2,0.3,0.0,False,1,2025-07-02 10:38:51,13
3513,2025-07-15 15:00:03,CCD,AMN,POST,I,DW369,1.4,Detection,Ramp,Auto,14.23,60.0,6,5,OFF,1.2,0.3,0.0,False,1,2025-07-02 10:38:51,13
3514,2025-07-15 15:00:15,CCD,AMN,POST,I,DW369,2.7,Detection,Ramp,Auto,27.5,60.0,6,5,OFF,1.2,0.3,0.0,False,1,2025-07-02 10:38:51,13
3515,2025-07-15 15:00:20,CCD,AMN,POST,I,DW369,1.5,Detection,Ramp,Auto,16.22,60.0,6,5,OFF,1.2,0.3,0.0,False,1,2025-07-02 10:38:51,13
3516,2025-07-15 15:00:33,CCD,AMN,POST,I,DW369,1.2,Detection,Ramp,Auto,12.9,60.0,6,5,OFF,1.2,0.3,0.0,False,1,2025-07-02 10:38:51,13
3517,2025-07-15 15:00:41,CCD,AMN,POST,I,DW369,2.6,Detection,Ramp,Auto,26.83,60.0,6,5,OFF,1.2,0.3,0.0,False,1,2025-07-02 10:38:51,13
3518,2025-07-15 15:01:24,CCD,AMN,POST,I,DW369,2.4,Detection,Ramp,Auto,24.84,60.0,6,5,OFF,1.2,0.3,0.0,False,1,2025-07-02 10:38:51,13
3519,2025-07-15 15:01:28,CCD,AMN,POST,I,DW369,0.1,Detection,Ramp,Auto,2.29,60.0,6,5,OFF,1.2,0.3,0.0,False,1,2025-07-02 10:38:51,13
3520,2025-07-15 15:02:03,CCD,AMN,POST,I,DW369,1.3,Detection,Ramp,Auto,13.57,60.0,6,5,OFF,1.2,0.3,0.0,False,1,2025-07-02 10:38:51,13
3521,2025-07-15 15:02:26,CCD,AMN,POST,I,DW369,0.6,Detection,Ramp,Auto,7.26,60.0,6,5,OFF,1.2,0.3,0.0,False,1,2025-07-02 10:38:51,13
3522,2025-07-15 15:02:35,CCD,AMN,POST,I,DW369,1.0,Detection,Ramp,Auto,10.58,60.0,6,5,OFF,1.2,0.3,0.0,False,1,2025-07-02 10:38:51,13
3523,2025-07-15 15:02:47,CCD,AMN,POST,I,DW369,1.9,Detection,Ramp,Auto,19.87,60.0,6,5,OFF,1.2,0.3,0.0,False,1,2025-07-02 10:38:51,13
3524,2025-07-15 15:02:57,CCD,AMN,POST,I,DW369,2.1,Detection,Ramp,Auto,21.19,60.0,6,5,OFF,1.2,0.3,0.0,False,1,2025-07-02 10:38:51,13
3525,2025-07-15 15:03:06,CCD,AMN,POST,I,DW369,2.5,Detection,Ramp,Auto,25.17,60.0,6,5,OFF,1.2,0.3,0.0,False,1,2025-07-02 10:38:51,13
3526,2025-07-15 15:03:33,CCD,AMN,POST,I,DW369,2.8,Detection,Ramp,Auto,28.82,60.0,6,5,OFF,1.2,0.3,0.0,False,1,2025-07-02 10:38:51,13
3527,2025-07-15 15:03:38,CCD,AMN,POST,I,DW369,0.3,Detection,Ramp,Auto,4.28,60.0,6,5,OFF,1.2,0.3,0.0,False,1,2025-07-02 10:38:51,13
3528,2025-07-15 15:04:03,CCD,AMN,POST,I,DW369,11.0,Cutoff,Ramp,Auto,60.0,60.0,6,5,OFF,1.2,0.3,0.0,False,0,2025-07-02 10:38:51,13
3529,2025-07-15 15:04:11,CCD,AMN,POST,I,DW369,3.7,Detection,Ramp,Auto,36.45,60.0,6,5,OFF,1.2,0.3,0.0,False,1,2025-07-02 10:38:51,13
3530,2025-07-15 15:04:35,CCD,AMN,POST,I,DW369,1.5,Detection,Ramp,Auto,14.89,60.0,6,5,OFF,1.2,0.3,0.0,False,1,2025-07-02 10:38:51,13
3531,2025-07-15 15:06:13,CCD,AMN,POST,I,DW369,2.1,Detection,Ramp,Auto,21.19,60.0,6,5,OFF,1.2,0.3,0.0,False,1,2025-07-02 10:38:51,13
3532,2025-07-15 15:06:18,CCD,AMN,POST,I,DW369,2.1,Detection,Ramp,Auto,21.86,60.0,6,5,OFF,1.2,0.3,0.0,False,1,2025-07-02 10:38:51,13
3533,2025-07-15 15:06:25,CCD,AMN,POST,I,DW369,0.0,Detection,Ramp,Auto,0.3,60.0,6,5,OFF,1.2,0.3,0.0,True,0,2025-07-02 10:38:51,13
3534,2025-07-15 15:06:46,CCD,AMN,POST,I,DW369,2.8,Detection,Ramp,Auto,27.83,60.0,6,5,OFF,1.2,0.3,0.0,False,1,2025-07-02 10:38:51,13
3535,2025-07-15 15:07:00,CCD,AMN,POST,I,DW369,4.1,Detection,Ramp,Auto,40.43,60.0,6,5,OFF,1.2,0.3,0.0,False,1,2025-07-02 10:38:51,13
3536,2025-07-15 15:07:09,CCD,AMN,POST,I,DW369,3.0,Detection,Ramp,Auto,30.15,60.0,6,5,OFF,1.2,0.3,0.0,False,1,2025-07-02 10:38:51,13
3537,2025-07-15 15:08:08,CCD,AMN,POST,I,DW369,3.0,Detection,Ramp,Auto,30.15,60.0,6,5,OFF,1.2,0.3,0.0,False,1,2025-07-02 10:38:51,13
3538,2025-07-15 15:08:12,CCD,AMN,POST,I,DW369,2.3,Detection,Ramp,Auto,23.52,60.0,6,5,OFF,1.2,0.3,0.0,False,1,2025-07-02 10:38:51,13
3539,2025-07-15 15:08:20,CCD,AMN,POST,I,DW369,3.5,Detection,Ramp,Auto,35.13,60.0,6,5,OFF,1.2,0.3,0.0,False,1,2025-07-02 10:38:51,13
3540,2025-07-15 15:08:31,CCD,AMN,POST,I,DW369,2.5,Detection,Ramp,Auto,25.17,60.0,6,5,OFF,1.2,0.3,0.0,False,1,2025-07-02 10:38:51,13
3541,2025-07-15 15:08:45,CCD,AMN,POST,I,DW369,3.8,Detection,Ramp,Auto,37.45,60.0,6,5,OFF,1.2,0.3,0.0,False,1,2025-07-02 10:38:51,13
3542,2025-07-15 15:08:58,CCD,AMN,POST,I,DW369,7.0,Detection,Ramp,Auto,60.0,60.0,6,5,OFF,1.2,0.3,0.0,False,1,2025-07-02 10:38:51,13
3543,2025-07-15 15:09:10,CCD,AMN,POST,I,DW369,1.7,Detection,Ramp,Auto,17.22,60.0,6,5,OFF,1.2,0.3,0.0,False,1,2025-07-02 10:38:51,13
3544,2025-07-15 15:09:30,CCD,AMN,POST,I,DW369,0.2,Detection,Ramp,Auto,2.62,60.0,6,5,OFF,1.2,0.3,0.0,False,1,2025-07-02 10:38:51,13
3545,2025-07-15 15:09:36,CCD,AMN,POST,I,DW369,1.7,Detection,Ramp,Auto,17.88,60.0,6,5,OFF,1.2,0.3,0.0,False,1,2025-07-02 10:38:51,13
3546,2025-07-15 15:11:08,CCD,AMN,POST,I,DW368,0.2,Detection,Ramp,Auto,2.29,60.0,6,5,OFF,1.2,0.3,0.0,False,1,2025-07-02 09:19:54,13
3547,2025-07-15 15:11:13,CCD,AMN,POST,I,DW368,0.1,Detection,Ramp,Auto,2.29,60.0,6,5,OFF,1.2,0.3,0.0,False,1,2025-07-02 09:19:54,13
3548,2025-07-15 15:11:22,CCD,AMN,POST,I,DW368,0.2,Detection,Ramp,Auto,2.29,60.0,6,5,OFF,1.2,0.3,0.0,False,1,2025-07-02 09:19:54,13
3549,2025-07-15 15:11:48,CCD,AMN,POST,I,DW368,0.2,Detection,Ramp,Auto,2.95,60.0,6,5,OFF,1.2,0.3,0.0,False,1,2025-07-02 09:19:54,13
3550,2025-07-15 15:11:52,CCD,AMN,POST,I,DW368,0.2,Detection,Ramp,Auto,2.62,60.0,6,5,OFF,1.2,0.3,0.0,False,1,2025-07-02 09:19:54,13
3551,2025-07-15 15:12:02,CCD,AMN,POST,I,DW368,0.2,Detection,Ramp,Auto,2.29,60.0,6,5,OFF,1.2,0.3,0.0,False,1,2025-07-02 09:19:54,13
3552,2025-07-15 15:12:11,CCD,AMN,POST,I,DW368,6.0,Detection,Ramp,Auto,59.67,60.0,6,5,OFF,1.2,0.3,0.0,False,1,2025-07-02 09:19:54,13
3553,2025-07-15 15:12:20,CCD,AMN,POST,I,DW368,0.6,Detection,Ramp,Auto,7.26,60.0,6,5,OFF,1.2,0.3,0.0,False,1,2025-07-02 09:19:54,13
3554,2025-07-15 15:12:29,CCD,AMN,POST,I,DW368,0.2,Detection,Ramp,Auto,2.95,60.0,6,5,OFF,1.2,0.3,0.0,False,1,2025-07-02 09:19:54,13
3555,2025-07-15 15:12:54,CCD,AMN,POST,I,DW368,1.4,Detection,Ramp,Auto,14.56,60.0,6,5,OFF,1.2,0.3,0.0,False,1,2025-07-02 09:19:54,13
3556,2025-07-15 15:13:13,CCD,AMN,POST,I,DW368,0.7,Detection,Ramp,Auto,7.26,60.0,6,5,OFF,1.2,0.3,0.0,False,1,2025-07-02 09:19:54,13
3557,2025-07-15 15:13:32,CCD,AMN,POST,I,DW368,0.7,Detection,Ramp,Auto,8.26,60.0,6,5,OFF,1.2,0.3,0.0,False,1,2025-07-02 09:19:54,13
3558,2025-07-15 15:13:37,CCD,AMN,POST,I,DW368,1.2,Detection,Ramp,Auto,13.23,60.0,6,5,OFF,1.2,0.3,0.0,False,1,2025-07-02 09:19:54,13
3559,2025-07-15 15:13:45,CCD,AMN,POST,I,DW368,1.6,Detection,Ramp,Auto,16.55,60.0,6,5,OFF,1.2,0.3,0.0,False,1,2025-07-02 09:19:54,13
3560,2025-07-15 15:13:56,CCD,AMN,POST,I,DW368,0.7,Detection,Ramp,Auto,7.93,60.0,6,5,OFF,1.2,0.3,0.0,False,1,2025-07-02 09:19:54,13
3561,2025-07-15 15:14:20,CCD,AMN,POST,I,DW368,2.1,Detection,Ramp,Auto,21.53,60.0,6,5,OFF,1.2,0.3,0.0,False,1,2025-07-02 09:19:54,13
3562,2025-07-15 15:14:34,CCD,AMN,POST,I,DW368,2.2,Detection,Ramp,Auto,22.19,60.0,6,5,OFF,1.2,0.3,0.0,False,1,2025-07-02 09:19:54,13
3563,2025-07-15 15:14:40,CCD,AMN,POST,I,DW368,1.1,Detection,Ramp,Auto,11.24,60.0,6,5,OFF,1.2,0.3,0.0,False,1,2025-07-02 09:19:54,13
3564,2025-07-15 15:14:46,CCD,AMN,POST,I,DW368,1.6,Detection,Ramp,Auto,16.55,60.0,6,5,OFF,1.2,0.3,0.0,False,1,2025-07-02 09:19:54,13
3565,2025-07-15 15:14:59,CCD,AMN,POST,I,DW368,0.7,Detection,Ramp,Auto,8.26,60.0,6,5,OFF,1.2,0.3,0.0,False,1,2025-07-02 09:19:54,13
3566,2025-07-15 15:15:04,CCD,AMN,POST,I,DW368,1.7,Detection,Ramp,Auto,18.21,60.0,6,5,OFF,1.2,0.3,0.0,False,1,2025-07-02 09:19:54,13
3567,2025-07-15 15:15:22,CCD,AMN,POST,I,DW368,9.8,Detection,Ramp,Auto,60.0,60.0,6,5,OFF,1.2,0.3,0.0,False,1,2025-07-02 09:19:54,13
3568,2025-07-15 15:15:27,CCD,AMN,POST,I,DW368,0.5,Detection,Ramp,Auto,6.27,60.0,6,5,OFF,1.2,0.3,0.0,False,1,2025-07-02 09:19:54,13
3569,2025-07-15 15:15:45,CCD,AMN,POST,I,DW368,1.1,Detection,Ramp,Auto,11.24,60.0,6,5,OFF,1.2,0.3,0.0,False,1,2025-07-02 09:19:54,13
3570,2025-07-15 15:15:51,CCD,AMN,POST,I,DW368,1.6,Detection,Ramp,Auto,16.88,60.0,6,5,OFF,1.2,0.3,0.0,False,1,2025-07-02 09:19:54,13
3571,2025-07-15 15:16:00,CCD,AMN,POST,I,DW368,1.0,Detection,Ramp,Auto,10.91,60.0,6,5,OFF,1.2,0.3,0.0,False,1,2025-07-02 09:19:54,13
3572,2025-07-15 15:16:10,CCD,AMN,POST,I,DW368,1.2,Detection,Ramp,Auto,12.9,60.0,6,5,OFF,1.2,0.3,0.0,False,1,2025-07-02 09:19:54,13
3573,2025-07-15 15:16:24,CCD,AMN,POST,I,DW368,0.7,Detection,Ramp,Auto,8.26,60.0,6,5,OFF,1.2,0.3,0.0,False,1,2025-07-02 09:19:54,13
3574,2025-07-15 15:16:32,CCD,AMN,POST,I,DW368,0.4,Detection,Ramp,Auto,4.94,60.0,6,5,OFF,1.2,0.3,0.0,False,1,2025-07-02 09:19:54,13
3575,2025-07-15 15:17:35,CCD,AMN,POST,I,DW368,0.1,Manual Stop,Ramp,Auto,0.96,60.0,6,5,OFF,1.2,0.3,0.0,True,0,2025-07-02 09:19:54,13
3576,2025-07-15 15:17:41,CCD,AMN,POST,I,DW368,1.7,Detection,Ramp,Auto,17.22,60.0,6,5,OFF,1.2,0.3,0.0,False,1,2025-07-02 09:19:54,13
3577,2025-07-15 15:18:32,CCD,AMN,POST,I,DW368,0.2,Detection,Ramp,Auto,2.95,60.0,6,5,OFF,1.2,0.3,0.0,False,1,2025-07-02 09:19:54,13
3578,2025-07-15 15:18:49,CCD,AMN,POST,I,DW368,0.2,Detection,Ramp,Auto,2.29,60.0,6,5,OFF,1.2,0.3,0.0,False,1,2025-07-02 09:19:54,13
3579,2025-07-15 15:20:23,CCD,AMN,POST,I,DW368,0.2,Detection,Ramp,Auto,3.29,60.0,6,5,OFF,1.2,0.3,0.0,False,1,2025-07-02 09:19:54,13
3580,2025-07-15 15:20:32,CCD,AMN,POST,I,DW368,0.2,Detection,Ramp,Auto,2.62,60.0,6,5,OFF,1.2,0.3,0.0,False,1,2025-07-02 09:19:54,13
3581,2025-07-15 15:21:43,CCD,AMN,POST,I,DW368,1.4,Detection,Ramp,Auto,14.89,60.0,6,5,OFF,1.2,0.3,0.0,False,1,2025-07-02 09:19:54,13
3582,2025-07-15 15:22:00,CCD,AMN,POST,I,DW368,0.5,Detection,Ramp,Auto,5.61,60.0,6,5,OFF,1.2,0.3,0.0,False,1,2025-07-02 09:19:54,13
3583,2025-07-15 15:22:38,CCD,AMN,POST,I,DW368,0.5,Detection,Ramp,Auto,5.94,60.0,6,5,OFF,1.2,0.3,0.0,False,1,2025-07-02 09:19:54,13
3584,2025-07-15 15:24:18,CCD,AMN,POST,I,DW368,1.3,Detection,Ramp,Auto,13.23,60.0,6,5,OFF,1.2,0.3,0.0,False,1,2025-07-02 09:19:54,13
3585,2025-07-15 15:24:26,CCD,AMN,POST,I,DW368,0.2,Detection,Ramp,Auto,3.29,60.0,6,5,OFF,1.2,0.3,0.0,False,1,2025-07-02 09:19:54,13
3586,2025-07-15 15:24:57,CCD,AMN,POST,I,DW368,2.9,Detection,Ramp,Auto,29.49,60.0,6,5,OFF,1.2,0.3,0.0,False,1,2025-07-02 09:19:54,13
3587,2025-07-15 15:25:05,CCD,AMN,POST,I,DW368,0.8,Detection,Ramp,Auto,8.26,60.0,6,5,OFF,1.2,0.3,0.0,False,1,2025-07-02 09:19:54,13
3588,2025-07-15 15:25:19,CCD,AMN,POST,I,DW368,0.9,Detection,Ramp,Auto,9.59,60.0,6,5,OFF,1.2,0.3,0.0,False,1,2025-07-02 09:19:54,13
3589,2025-07-15 15:25:30,CCD,AMN,POST,I,DW368,2.3,Detection,Ramp,Auto,23.52,60.0,6,5,OFF,1.2,0.3,0.0,False,1,2025-07-02 09:19:54,13
3590,2025-07-15 15:25:40,CCD,AMN,POST,I,DW368,3.2,Detection,Ramp,Auto,32.14,60.0,6,5,OFF,1.2,0.3,0.0,False,1,2025-07-02 09:19:54,13
3591,2025-07-15 15:25:46,CCD,AMN,POST,I,DW368,1.9,Detection,Ramp,Auto,19.2,60.0,6,5,OFF,1.2,0.3,0.0,False,1,2025-07-02 09:19:54,13
3592,2025-07-15 15:25:52,CCD,AMN,POST,I,DW368,0.6,Detection,Ramp,Auto,6.27,60.0,6,5,OFF,1.2,0.3,0.0,False,1,2025-07-02 09:19:54,13
3593,2025-07-15 15:26:17,CCD,AMN,POST,I,DW368,10.7,Detection,Ramp,Auto,60.0,60.0,6,5,OFF,1.2,0.3,0.0,False,1,2025-07-02 09:19:54,13
3594,2025-07-15 15:26:39,CCD,AMN,POST,I,DW368,1.8,Detection,Ramp,Auto,18.54,60.0,6,5,OFF,1.2,0.3,0.0,False,1,2025-07-02 09:19:54,13
3595,2025-07-15 15:26:50,CCD,AMN,POST,I,DW368,0.2,Detection,Ramp,Auto,2.29,60.0,6,5,OFF,1.2,0.3,0.0,False,1,2025-07-02 09:19:54,13
3596,2025-07-15 15:28:01,CCD,AMN,POST,I,DW368,0.2,Detection,Ramp,Auto,2.95,60.0,6,5,OFF,1.2,0.3,0.0,False,1,2025-07-02 09:19:54,13
3597,2025-07-15 15:28:54,CCD,AMN,POST,I,DW368,1.0,Detection,Ramp,Auto,11.24,60.0,6,5,OFF,1.2,0.3,0.0,False,1,2025-07-02 09:19:54,13
3598,2025-07-15 15:29:01,CCD,AMN,POST,I,DW368,0.9,Detection,Ramp,Auto,9.26,60.0,6,5,OFF,1.2,0.3,0.0,False,1,2025-07-02 09:19:54,13
3599,2025-07-15 15:29:05,CCD,AMN,POST,I,DW368,0.5,Detection,Ramp,Auto,6.27,60.0,6,5,OFF,1.2,0.3,0.0,False,1,2025-07-02 09:19:54,13
3600,2025-07-15 15:29:10,CCD,AMN,POST,I,DW368,0.1,Detection,Ramp,Auto,1.63,60.0,6,5,OFF,1.2,0.3,0.0,False,1,2025-07-02 09:19:54,13
3601,2025-07-15 15:29:21,CCD,AMN,POST,I,DW368,0.6,Detection,Ramp,Auto,6.6,60.0,6,5,OFF,1.2,0.3,0.0,False,1,2025-07-02 09:19:54,13
3602,2025-07-15 15:29:35,CCD,AMN,POST,I,DW368,0.2,Detection,Ramp,Auto,2.29,60.0,6,5,OFF,1.2,0.3,0.0,False,1,2025-07-02 09:19:54,13
3603,2025-07-15 15:29:42,CCD,AMN,POST,I,DW368,1.2,Detection,Ramp,Auto,11.91,60.0,6,5,OFF,1.2,0.3,0.0,False,1,2025-07-02 09:19:54,13
3604,2025-07-15 15:29:51,CCD,AMN,POST,I,DW368,1.9,Detection,Ramp,Auto,19.54,60.0,6,5,OFF,1.2,0.3,0.0,False,1,2025-07-02 09:19:54,13
3605,2025-07-15 15:30:07,CCD,AMN,POST,I,DW368,1.0,Detection,Ramp,Auto,10.91,60.0,6,5,OFF,1.2,0.3,0.0,False,1,2025-07-02 09:19:54,13
3606,2025-07-15 15:30:19,CCD,AMN,POST,I,DW368,1.2,Detection,Ramp,Auto,12.57,60.0,6,5,OFF,1.2,0.3,0.0,False,1,2025-07-02 09:19:54,13
3607,2025-07-15 15:30:39,CCD,AMN,POST,I,DW368,0.8,Detection,Ramp,Auto,8.59,60.0,6,5,OFF,1.2,0.3,0.0,False,1,2025-07-02 09:19:54,13
3608,2025-07-15 15:30:43,CCD,AMN,POST,I,DW368,0.5,Detection,Ramp,Auto,5.94,60.0,6,5,OFF,1.2,0.3,0.0,False,1,2025-07-02 09:19:54,13
3609,2025-07-15 15:31:04,CCD,AMN,POST,I,DW368,1.5,Detection,Ramp,Auto,15.23,60.0,6,5,OFF,1.2,0.3,0.0,False,1,2025-07-02 09:19:54,13
3610,2025-07-15 15:31:33,CCD,AMN,POST,I,DW368,3.7,Detection,Ramp,Auto,37.78,60.0,6,5,OFF,1.2,0.3,0.0,False,1,2025-07-02 09:19:54,13
3611,2025-07-15 15:32:12,CCD,AMN,POST,I,DW368,3.9,Detection,Ramp,Auto,39.44,60.0,6,5,OFF,1.2,0.3,0.0,False,1,2025-07-02 09:19:54,13
3612,2025-07-15 15:32:18,CCD,AMN,POST,I,DW368,2.2,Detection,Ramp,Auto,22.19,60.0,6,5,OFF,1.2,0.3,0.0,False,1,2025-07-02 09:19:54,13
3613,2025-07-15 15:32:24,CCD,AMN,POST,I,DW368,2.1,Detection,Ramp,Auto,21.86,60.0,6,5,OFF,1.2,0.3,0.0,False,1,2025-07-02 09:19:54,13
3614,2025-07-15 15:32:39,CCD,AMN,POST,I,DW368,1.3,Detection,Ramp,Auto,13.57,60.0,6,5,OFF,1.2,0.3,0.0,False,1,2025-07-02 09:19:54,13
3615,2025-07-15 15:32:46,CCD,AMN,POST,I,DW368,2.6,Detection,Ramp,Auto,26.83,60.0,6,5,OFF,1.2,0.3,0.0,False,1,2025-07-02 09:19:54,13
3616,2025-07-15 15:32:50,CCD,AMN,POST,I,DW368,0.6,Detection,Ramp,Auto,7.26,60.0,6,5,OFF,1.2,0.3,0.0,False,1,2025-07-02 09:19:54,13
3617,2025-07-15 15:32:58,CCD,AMN,POST,I,DW368,1.0,Detection,Ramp,Auto,10.25,60.0,6,5,OFF,1.2,0.3,0.0,False,1,2025-07-02 09:19:54,13
3618,2025-07-15 15:33:05,CCD,AMN,POST,I,DW368,0.8,Detection,Ramp,Auto,9.26,60.0,6,5,OFF,1.2,0.3,0.0,False,1,2025-07-02 09:19:54,13
3619,2025-07-15 15:34:16,CCD,AMN,POST,I,DW368,3.1,Undefined,Ramp,Auto,31.48,60.0,6,5,OFF,1.2,0.3,0.0,False,0,2025-07-02 09:19:54,13
3620,2025-07-15 15:34:18,CCD,AMN,POST,I,DW368,0.2,Detection,Ramp,Auto,2.62,60.0,6,5,OFF,1.2,0.3,0.0,False,1,2025-07-02 09:19:54,13
3621,2025-07-15 15:34:26,CCD,AMN,POST,I,DW368,0.9,Detection,Ramp,Auto,10.25,60.0,6,5,OFF,1.2,0.3,0.0,False,1,2025-07-02 09:19:54,13
3622,2025-07-15 15:35:02,CCD,AMN,POST,C,DW369,5.4,Detection,Ramp,Auto,54.03,60.0,6,5,OFF,1.2,0.3,0.0,False,1,2025-07-02 10:38:51,13
3623,2025-07-15 15:35:10,CCD,AMN,POST,C,DW369,1.6,Detection,Ramp,Auto,16.55,60.0,6,5,OFF,1.2,0.3,0.0,False,1,2025-07-02 10:38:51,13
3624,2025-07-15 15:35:19,CCD,AMN,POST,C,DW369,1.7,Detection,Ramp,Auto,17.22,60.0,6,5,OFF,1.2,0.3,0.0,False,1,2025-07-02 10:38:51,13
3625,2025-07-15 15:35:25,CCD,AMN,POST,C,DW369,2.8,Detection,Ramp,Auto,28.16,60.0,6,5,OFF,1.2,0.3,0.0,False,1,2025-07-02 10:38:51,13
3626,2025-07-15 15:35:36,CCD,AMN,POST,C,DW369,0.8,Detection,Ramp,Auto,8.26,60.0,6,5,OFF,1.2,0.3,0.0,False,1,2025-07-02 10:38:51,13
3627,2025-07-15 15:35:44,CCD,AMN,POST,C,DW369,0.8,Detection,Ramp,Auto,8.92,60.0,6,5,OFF,1.2,0.3,0.0,False,1,2025-07-02 10:38:51,13
3628,2025-07-15 15:35:50,CCD,AMN,POST,C,DW369,1.7,Detection,Ramp,Auto,18.21,60.0,6,5,OFF,1.2,0.3,0.0,False,1,2025-07-02 10:38:51,13
3629,2025-07-15 15:36:03,CCD,AMN,POST,C,DW369,0.6,Detection,Ramp,Auto,6.6,60.0,6,5,OFF,1.2,0.3,0.0,False,1,2025-07-02 10:38:51,13
3630,2025-07-15 15:36:09,CCD,AMN,POST,C,DW369,2.5,Detection,Ramp,Auto,25.51,60.0,6,5,OFF,1.2,0.3,0.0,False,1,2025-07-02 10:38:51,13
3631,2025-07-15 15:36:19,CCD,AMN,POST,C,DW369,0.4,Detection,Ramp,Auto,4.94,60.0,6,5,OFF,1.2,0.3,0.0,False,1,2025-07-02 10:38:51,13
3632,2025-07-15 15:36:32,CCD,AMN,POST,C,DW369,1.4,Detection,Ramp,Auto,13.9,60.0,6,5,OFF,1.2,0.3,0.0,False,1,2025-07-02 10:38:51,13
3633,2025-07-15 15:36:38,CCD,AMN,POST,C,DW369,1.6,Detection,Ramp,Auto,16.22,60.0,6,5,OFF,1.2,0.3,0.0,False,1,2025-07-02 10:38:51,13
3634,2025-07-15 15:36:44,CCD,AMN,POST,C,DW369,1.6,Detection,Ramp,Auto,16.55,60.0,6,5,OFF,1.2,0.3,0.0,False,1,2025-07-02 10:38:51,13
3635,2025-07-15 15:37:53,CCD,AMN,POST,C,DW369,6.2,Undefined,Ramp,Auto,60.0,60.0,6,5,OFF,1.2,0.3,0.0,False,0,2025-07-02 10:38:51,13
3636,2025-07-15 15:37:59,CCD,AMN,POST,C,DW369,4.2,Detection,Ramp,Auto,41.43,60.0,6,5,OFF,1.2,0.3,0.0,False,1,2025-07-02 10:38:51,13
3637,2025-07-15 15:38:08,CCD,AMN,POST,C,DW369,2.6,Detection,Ramp,Auto,26.83,60.0,6,5,OFF,1.2,0.3,0.0,False,1,2025-07-02 10:38:51,13
3638,2025-07-15 15:38:16,CCD,AMN,POST,C,DW369,0.6,Detection,Ramp,Auto,6.6,60.0,6,5,OFF,1.2,0.3,0.0,False,1,2025-07-02 10:38:51,13
3639,2025-07-15 15:38:28,CCD,AMN,POST,C,DW369,2.9,Detection,Ramp,Auto,29.16,60.0,6,5,OFF,1.2,0.3,0.0,False,1,2025-07-02 10:38:51,13
3640,2025-07-15 15:38:36,CCD,AMN,POST,C,DW369,3.5,Detection,Ramp,Auto,35.46,60.0,6,5,OFF,1.2,0.3,0.0,False,1,2025-07-02 10:38:51,13
3641,2025-07-15 15:38:41,CCD,AMN,POST,C,DW369,0.1,Detection,Ramp,Auto,1.96,60.0,6,5,OFF,1.2,0.3,0.0,False,1,2025-07-02 10:38:51,13
3642,2025-07-15 15:38:46,CCD,AMN,POST,C,DW369,1.6,Detection,Ramp,Auto,16.22,60.0,6,5,OFF,1.2,0.3,0.0,False,1,2025-07-02 10:38:51,13
3643,2025-07-15 15:39:16,CCD,AMN,POST,C,DW368,4.1,Detection,Ramp,Auto,41.1,60.0,6,5,OFF,1.2,0.3,0.0,False,1,2025-07-02 09:19:54,13
3644,2025-07-15 15:39:25,CCD,AMN,POST,C,DW368,3.2,Detection,Ramp,Auto,31.81,60.0,6,5,OFF,1.2,0.3,0.0,False,1,2025-07-02 09:19:54,13
3645,2025-07-15 15:39:34,CCD,AMN,POST,C,DW368,1.2,Detection,Ramp,Auto,12.24,60.0,6,5,OFF,1.2,0.3,0.0,False,1,2025-07-02 09:19:54,13
3646,2025-07-15 15:39:49,CCD,AMN,POST,C,DW368,2.2,Detection,Ramp,Auto,21.86,60.0,6,5,OFF,1.2,0.3,0.0,False,1,2025-07-02 09:19:54,13
3647,2025-07-15 15:40:11,CCD,AMN,POST,C,DW368,0.7,Detection,Ramp,Auto,7.93,60.0,6,5,OFF,1.2,0.3,0.0,False,1,2025-07-02 09:19:54,13
3648,2025-07-15 15:40:19,CCD,AMN,POST,C,DW368,3.8,Detection,Ramp,Auto,38.44,60.0,6,5,OFF,1.2,0.3,0.0,False,1,2025-07-02 09:19:54,13
3649,2025-07-15 15:40:26,CCD,AMN,POST,C,DW368,1.7,Detection,Ramp,Auto,17.88,60.0,6,5,OFF,1.2,0.3,0.0,False,1,2025-07-02 09:19:54,13
3650,2025-07-15 15:40:47,CCD,AMN,POST,C,DW368,2.8,Detection,Ramp,Auto,27.83,60.0,6,5,OFF,1.2,0.3,0.0,False,1,2025-07-02 09:19:54,13
3651,2025-07-15 15:40:53,CCD,AMN,POST,C,DW368,1.3,Detection,Ramp,Auto,13.23,60.0,6,5,OFF,1.2,0.3,0.0,False,1,2025-07-02 09:19:54,13
3652,2025-07-15 15:41:14,CCD,AMN,POST,C,DW368,3.2,Detection,Ramp,Auto,32.47,60.0,6,5,OFF,1.2,0.3,0.0,False,1,2025-07-02 09:19:54,13
3653,2025-07-15 15:41:25,CCD,AMN,POST,C,DW368,4.8,Detection,Ramp,Auto,48.06,60.0,6,5,OFF,1.2,0.3,0.0,False,1,2025-07-02 09:19:54,13
3654,2025-07-15 15:41:37,CCD,AMN,POST,C,DW368,4.0,Detection,Ramp,Auto,40.43,60.0,6,5,OFF,1.2,0.3,0.0,False,1,2025-07-02 09:19:54,13
3655,2025-07-15 15:41:59,CCD,AMN,POST,C,DW368,4.1,Detection,Ramp,Auto,41.43,60.0,6,5,OFF,1.2,0.3,0.0,False,1,2025-07-02 09:19:54,13
3656,2025-07-15 15:42:08,CCD,AMN,POST,C,DW368,4.1,Detection,Ramp,Auto,41.1,60.0,6,5,OFF,1.2,0.3,0.0,False,1,2025-07-02 09:19:54,13
3657,2025-07-15 15:42:12,CCD,AMN,POST,C,DW368,0.1,Detection,Ramp,Auto,2.29,60.0,6,5,OFF,1.2,0.3,0.0,False,1,2025-07-02 09:19:54,13
3658,2025-07-15 15:42:32,CCD,AMN,POST,C,DW368,2.7,Detection,Ramp,Auto,27.17,60.0,6,5,OFF,1.2,0.3,0.0,False,1,2025-07-02 09:19:54,13
3659,2025-07-15 15:42:40,CCD,AMN,POST,C,DW368,3.0,Detection,Ramp,Auto,29.49,60.0,6,5,OFF,1.2,0.3,0.0,False,1,2025-07-02 09:19:54,13
3660,2025-07-15 15:42:47,CCD,AMN,POST,C,DW368,0.0,Manual Stop,Ramp,Auto,0.3,60.0,6,5,OFF,1.2,0.3,0.0,False,0,2025-07-02 09:19:54,13
3661,2025-07-15 15:42:54,CCD,AMN,POST,C,DW368,2.7,Detection,Ramp,Auto,26.83,60.0,6,5,OFF,1.2,0.3,0.0,False,1,2025-07-02 09:19:54,13
3662,2025-07-15 15:43:04,CCD,AMN,POST,C,DW368,2.9,Detection,Ramp,Auto,28.49,60.0,6,5,OFF,1.2,0.3,0.0,False,1,2025-07-02 09:19:54,13
3663,2025-07-15 15:43:23,CCD,AMN,POST,C,DW368,5.2,Detection,Ramp,Auto,52.04,60.0,6,5,OFF,1.2,0.3,0.0,False,1,2025-07-02 09:19:54,13
3664,2025-07-15 15:43:32,CCD,AMN,POST,C,DW368,3.3,Detection,Ramp,Auto,33.13,60.0,6,5,OFF,1.2,0.3,0.0,False,1,2025-07-02 09:19:54,13
3665,2025-07-15 15:43:39,CCD,AMN,POST,C,DW368,1.8,Detection,Ramp,Auto,18.87,60.0,6,5,OFF,1.2,0.3,0.0,False,1,2025-07-02 09:19:54,13
3666,2025-07-16 13:37:40,CCD,AMN,POST,C,DW368,4.6,Detection,Ramp,Auto,45.74,60.0,6,5,OFF,1.2,0.3,0.0,False,1,2025-07-02 09:19:54,14
3667,2025-07-16 13:38:13,CCD,AMN,POST,C,DW368,6.1,Detection,Ramp,Auto,59.67,60.0,6,5,OFF,1.2,0.3,0.0,False,1,2025-07-02 09:19:54,14
3668,2025-07-16 13:38:26,CCD,AMN,POST,C,DW368,3.4,Detection,Ramp,Auto,34.79,60.0,6,5,OFF,1.2,0.3,0.0,False,1,2025-07-02 09:19:54,14
3669,2025-07-16 13:38:48,CCD,AMN,POST,C,DW368,4.0,Detection,Ramp,Auto,40.1,60.0,6,5,OFF,1.2,0.3,0.0,False,1,2025-07-02 09:19:54,14
3670,2025-07-16 13:39:01,CCD,AMN,POST,C,DW368,6.7,Detection,Ramp,Auto,60.0,60.0,6,5,OFF,1.2,0.3,0.0,False,1,2025-07-02 09:19:54,14
3671,2025-07-16 13:39:15,CCD,AMN,POST,C,DW368,4.8,Detection,Ramp,Auto,47.06,60.0,6,5,OFF,1.2,0.3,0.0,False,1,2025-07-02 09:19:54,14
3672,2025-07-16 13:39:30,CCD,AMN,POST,C,DW368,3.5,Detection,Ramp,Auto,35.46,60.0,6,5,OFF,1.2,0.3,0.0,False,1,2025-07-02 09:19:54,14
3673,2025-07-16 13:39:52,CCD,AMN,POST,C,DW368,4.5,Detection,Ramp,Auto,44.41,60.0,6,5,OFF,1.2,0.3,0.0,False,1,2025-07-02 09:19:54,14
3674,2025-07-16 13:40:05,CCD,AMN,POST,C,DW368,5.7,Detection,Ramp,Auto,57.01,60.0,6,5,OFF,1.2,0.3,0.0,False,1,2025-07-02 09:19:54,14
3675,2025-07-16 13:40:17,CCD,AMN,POST,C,DW368,5.5,Detection,Ramp,Auto,54.69,60.0,6,5,OFF,1.2,0.3,0.0,False,1,2025-07-02 09:19:54,14
3676,2025-07-16 13:40:29,CCD,AMN,POST,C,DW368,1.9,Detection,Ramp,Auto,19.87,60.0,6,5,OFF,1.2,0.3,0.0,False,1,2025-07-02 09:19:54,14
3677,2025-07-16 13:40:46,CCD,AMN,POST,C,DW368,5.7,Detection,Ramp,Auto,57.35,60.0,6,5,OFF,1.2,0.3,0.0,False,1,2025-07-02 09:19:54,14
3678,2025-07-16 13:40:59,CCD,AMN,POST,C,DW368,5.3,Detection,Ramp,Auto,52.7,60.0,6,5,OFF,1.2,0.3,0.0,False,1,2025-07-02 09:19:54,14
3679,2025-07-16 13:41:13,CCD,AMN,POST,C,DW368,5.2,Detection,Ramp,Auto,52.04,60.0,6,5,OFF,1.2,0.3,0.0,False,1,2025-07-02 09:19:54,14
3680,2025-07-16 13:41:28,CCD,AMN,POST,C,DW368,2.6,Detection,Ramp,Auto,27.17,60.0,6,5,OFF,1.2,0.3,0.0,False,1,2025-07-02 09:19:54,14
3681,2025-07-16 13:41:40,CCD,AMN,POST,C,DW368,1.5,Detection,Ramp,Auto,16.22,60.0,6,5,OFF,1.2,0.3,0.0,False,1,2025-07-02 09:19:54,14
3682,2025-07-16 13:42:05,CCD,AMN,POST,C,DW368,2.8,Detection,Ramp,Auto,27.83,60.0,6,5,OFF,1.2,0.3,0.0,False,1,2025-07-02 09:19:54,14
3683,2025-07-16 13:42:25,CCD,AMN,POST,C,DW368,3.0,Detection,Ramp,Auto,29.82,60.0,6,5,OFF,1.2,0.3,0.0,False,1,2025-07-02 09:19:54,14
3684,2025-07-16 13:42:36,CCD,AMN,POST,C,DW368,1.9,Detection,Ramp,Auto,19.2,60.0,6,5,OFF,1.2,0.3,0.0,False,1,2025-07-02 09:19:54,14
3685,2025-07-16 13:43:10,CCD,AMN,POST,C,DW368,2.0,Detection,Ramp,Auto,21.19,60.0,6,5,OFF,1.2,0.3,0.0,False,1,2025-07-02 09:19:54,14
3686,2025-07-16 13:43:26,CCD,AMN,POST,C,DW368,2.1,Detection,Ramp,Auto,20.86,60.0,6,5,OFF,1.2,0.3,0.0,False,1,2025-07-02 09:19:54,14
3687,2025-07-16 13:43:32,CCD,AMN,POST,C,DW368,1.0,Detection,Ramp,Auto,10.91,60.0,6,5,OFF,1.2,0.3,0.0,False,1,2025-07-02 09:19:54,14
3688,2025-07-16 13:44:27,CCD,AMN,POST,C,DW368,5.6,Detection,Ramp,Auto,55.69,60.0,6,5,OFF,1.2,0.3,0.0,False,1,2025-07-02 09:19:54,14
3689,2025-07-16 13:44:47,CCD,AMN,POST,C,DW368,6.1,Detection,Ramp,Auto,60.0,60.0,6,5,OFF,1.2,0.3,0.0,False,1,2025-07-02 09:19:54,14
3690,2025-07-16 13:45:00,CCD,AMN,POST,C,DW368,3.8,Detection,Ramp,Auto,37.78,60.0,6,5,OFF,1.2,0.3,0.0,False,1,2025-07-02 09:19:54,14
3691,2025-07-16 13:45:23,CCD,AMN,POST,C,DW368,1.8,Detection,Ramp,Auto,18.21,60.0,6,5,OFF,1.2,0.3,0.0,False,1,2025-07-02 09:19:54,14
3692,2025-07-16 13:45:32,CCD,AMN,POST,C,DW368,0.3,Detection,Ramp,Auto,3.62,60.0,6,5,OFF,1.2,0.3,0.0,False,1,2025-07-02 09:19:54,14
3693,2025-07-16 13:46:00,CCD,AMN,POST,C,DW368,4.3,Detection,Ramp,Auto,42.09,60.0,6,5,OFF,1.2,0.3,0.0,False,1,2025-07-02 09:19:54,14
3694,2025-07-16 13:46:16,CCD,AMN,POST,C,DW368,2.2,Detection,Ramp,Auto,22.19,60.0,6,5,OFF,1.2,0.3,0.0,False,1,2025-07-02 09:19:54,14
3695,2025-07-16 13:46:42,CCD,AMN,POST,C,DW368,5.4,Detection,Ramp,Auto,54.36,60.0,6,5,OFF,1.2,0.3,0.0,False,1,2025-07-02 09:19:54,14
3696,2025-07-16 13:46:50,CCD,AMN,POST,C,DW368,2.2,Detection,Ramp,Auto,22.19,60.0,6,5,OFF,1.2,0.3,0.0,False,1,2025-07-02 09:19:54,14
3697,2025-07-16 13:47:00,CCD,AMN,POST,C,DW368,0.9,Detection,Ramp,Auto,9.59,60.0,6,5,OFF,1.2,0.3,0.0,False,1,2025-07-02 09:19:54,14
3698,2025-07-16 13:47:39,CCD,AMN,POST,C,DW368,2.7,Detection,Ramp,Auto,27.5,60.0,6,5,OFF,1.2,0.3,0.0,False,1,2025-07-02 09:19:54,14
3699,2025-07-16 13:47:48,CCD,AMN,POST,C,DW368,2.0,Detection,Ramp,Auto,19.87,60.0,6,5,OFF,1.2,0.3,0.0,False,1,2025-07-02 09:19:54,14
3700,2025-07-16 13:48:04,CCD,AMN,POST,C,DW368,3.4,Detection,Ramp,Auto,33.13,60.0,6,5,OFF,1.2,0.3,0.0,False,1,2025-07-02 09:19:54,14
3701,2025-07-16 13:48:34,CCD,AMN,POST,C,DW368,4.6,Detection,Ramp,Auto,45.74,60.0,6,5,OFF,1.2,0.3,0.0,False,1,2025-07-02 09:19:54,14
3702,2025-07-16 13:49:00,CCD,AMN,POST,C,DW368,3.5,Detection,Ramp,Auto,34.46,60.0,6,5,OFF,1.2,0.3,0.0,False,1,2025-07-02 09:19:54,14
3703,2025-07-16 13:51:29,CCD,AMN,POST,C,DW368,2.7,Detection,Ramp,Auto,27.17,60.0,6,5,OFF,1.2,0.3,0.0,False,1,2025-07-02 09:19:54,14
3704,2025-07-16 13:52:03,CCD,AMN,POST,C,DW369,2.1,Detection,Ramp,Auto,21.53,60.0,6,5,OFF,1.2,0.3,0.0,False,1,2025-07-02 10:38:51,14
3705,2025-07-16 13:52:15,CCD,AMN,POST,C,DW369,5.3,Detection,Ramp,Auto,53.03,60.0,6,5,OFF,1.2,0.3,0.0,False,1,2025-07-02 10:38:51,14
3706,2025-07-16 13:52:23,CCD,AMN,POST,C,DW369,0.7,Detection,Ramp,Auto,7.26,60.0,6,5,OFF,1.2,0.3,0.0,False,1,2025-07-02 10:38:51,14
3707,2025-07-16 13:52:41,CCD,AMN,POST,C,DW369,4.9,Detection,Ramp,Auto,49.39,60.0,6,5,OFF,1.2,0.3,0.0,False,1,2025-07-02 10:38:51,14
3708,2025-07-16 13:52:50,CCD,AMN,POST,C,DW369,1.6,Detection,Ramp,Auto,16.22,60.0,6,5,OFF,1.2,0.3,0.0,False,1,2025-07-02 10:38:51,14
3709,2025-07-16 13:53:06,CCD,AMN,POST,C,DW369,2.0,Detection,Ramp,Auto,20.53,60.0,6,5,OFF,1.2,0.3,0.0,False,1,2025-07-02 10:38:51,14
3710,2025-07-16 13:53:20,CCD,AMN,POST,C,DW369,2.9,Detection,Ramp,Auto,29.16,60.0,6,5,OFF,1.2,0.3,0.0,False,1,2025-07-02 10:38:51,14
3711,2025-07-16 13:53:28,CCD,AMN,POST,C,DW369,1.9,Detection,Ramp,Auto,19.54,60.0,6,5,OFF,1.2,0.3,0.0,False,1,2025-07-02 10:38:51,14
3712,2025-07-16 13:54:07,CCD,AMN,POST,C,DW369,4.0,Detection,Ramp,Auto,40.43,60.0,6,5,OFF,1.2,0.3,0.0,False,1,2025-07-02 10:38:51,14
3713,2025-07-16 13:54:46,CCD,AMN,POST,C,DW369,3.0,Detection,Ramp,Auto,30.48,60.0,6,5,OFF,1.2,0.3,0.0,False,1,2025-07-02 10:38:51,14
3714,2025-07-16 13:55:40,CCD,AMN,POST,C,DW369,2.5,Detection,Ramp,Auto,25.17,60.0,6,5,OFF,1.2,0.3,0.0,False,1,2025-07-02 10:38:51,14
3715,2025-07-16 13:56:10,CCD,AMN,POST,C,DW369,1.2,Detection,Ramp,Auto,12.24,60.0,6,5,OFF,1.2,0.3,0.0,False,1,2025-07-02 10:38:51,14
3716,2025-07-16 13:56:28,CCD,AMN,POST,C,DW369,1.7,Detection,Ramp,Auto,17.22,60.0,6,5,OFF,1.2,0.3,0.0,False,1,2025-07-02 10:38:51,14
3717,2025-07-16 13:57:23,CCD,AMN,POST,C,DW369,1.5,Detection,Ramp,Auto,16.22,60.0,6,5,OFF,1.2,0.3,0.0,False,1,2025-07-02 10:38:51,14
3718,2025-07-16 13:57:39,CCD,AMN,POST,C,DW369,2.5,Detection,Ramp,Auto,25.84,60.0,6,5,OFF,1.2,0.3,0.0,False,1,2025-07-02 10:38:51,14
3719,2025-07-16 13:57:53,CCD,AMN,POST,C,DW369,3.1,Detection,Ramp,Auto,31.81,60.0,6,5,OFF,1.2,0.3,0.0,False,1,2025-07-02 10:38:51,14
3720,2025-07-16 13:58:30,CCD,AMN,POST,C,DW369,1.5,Detection,Ramp,Auto,14.89,60.0,6,5,OFF,1.2,0.3,0.0,False,1,2025-07-02 10:38:51,14
3721,2025-07-16 13:59:03,CCD,AMN,POST,C,DW369,5.4,Detection,Ramp,Auto,53.37,60.0,6,5,OFF,1.2,0.3,0.0,False,1,2025-07-02 10:38:51,14
3722,2025-07-16 13:59:13,CCD,AMN,POST,C,DW369,0.1,Detection,Ramp,Auto,1.63,60.0,6,5,OFF,1.2,0.3,0.0,False,1,2025-07-02 10:38:51,14
3723,2025-07-16 13:59:22,CCD,AMN,POST,C,DW369,1.5,Detection,Ramp,Auto,15.23,60.0,6,5,OFF,1.2,0.3,0.0,False,1,2025-07-02 10:38:51,14
3724,2025-07-16 13:59:30,CCD,AMN,POST,C,DW369,3.9,Detection,Ramp,Auto,39.44,60.0,6,5,OFF,1.2,0.3,0.0,False,1,2025-07-02 10:38:51,14
3725,2025-07-16 13:59:52,CCD,AMN,POST,C,DW369,3.6,Detection,Ramp,Auto,35.46,60.0,6,5,OFF,1.2,0.3,0.0,False,1,2025-07-02 10:38:51,14
3726,2025-07-16 14:00:13,CCD,AMN,POST,C,DW369,4.5,Detection,Ramp,Auto,45.41,60.0,6,5,OFF,1.2,0.3,0.0,False,1,2025-07-02 10:38:51,14
3727,2025-07-16 14:00:35,CCD,AMN,POST,C,DW369,3.8,Detection,Ramp,Auto,37.45,60.0,6,5,OFF,1.2,0.3,0.0,False,1,2025-07-02 10:38:51,14
3728,2025-07-16 14:00:55,CCD,AMN,POST,C,DW369,5.4,Detection,Ramp,Auto,53.7,60.0,6,5,OFF,1.2,0.3,0.0,False,1,2025-07-02 10:38:51,14
3729,2025-07-16 14:01:29,CCD,AMN,POST,C,DW369,3.8,Detection,Ramp,Auto,38.77,60.0,6,5,OFF,1.2,0.3,0.0,False,1,2025-07-02 10:38:51,14
3730,2025-07-16 14:01:53,CCD,AMN,POST,C,DW369,0.2,Detection,Ramp,Auto,2.29,60.0,6,5,OFF,1.2,0.3,0.0,False,1,2025-07-02 10:38:51,14
3731,2025-07-16 14:02:11,CCD,AMN,POST,C,DW369,4.0,Detection,Ramp,Auto,40.1,60.0,6,5,OFF,1.2,0.3,0.0,False,1,2025-07-02 10:38:51,14
3732,2025-07-16 14:02:37,CCD,AMN,POST,C,DW369,5.1,Detection,Ramp,Auto,51.04,60.0,6,5,OFF,1.2,0.3,0.0,False,1,2025-07-02 10:38:51,14
3733,2025-07-16 14:02:46,CCD,AMN,POST,C,DW369,0.0,Detection,Ramp,Auto,0.3,60.0,6,5,OFF,1.2,0.3,0.0,True,0,2025-07-02 10:38:51,14
3734,2025-07-16 14:03:24,CCD,AMN,POST,C,DW369,3.9,Detection,Ramp,Auto,39.44,60.0,6,5,OFF,1.2,0.3,0.0,False,1,2025-07-02 10:38:51,14
3735,2025-07-16 14:04:37,CCD,AMN,POST,C,DW369,4.5,Detection,Ramp,Auto,44.74,60.0,6,5,OFF,1.2,0.3,0.0,False,1,2025-07-02 10:38:51,14
3736,2025-07-16 14:04:48,CCD,AMN,POST,C,DW369,6.0,Detection,Ramp,Auto,59.01,60.0,6,5,OFF,1.2,0.3,0.0,False,1,2025-07-02 10:38:51,14
3737,2025-07-16 14:05:00,CCD,AMN,POST,C,DW369,5.0,Detection,Ramp,Auto,49.72,60.0,6,5,OFF,1.2,0.3,0.0,False,1,2025-07-02 10:38:51,14
3738,2025-07-16 14:05:12,CCD,AMN,POST,C,DW369,5.3,Detection,Ramp,Auto,52.37,60.0,6,5,OFF,1.2,0.3,0.0,False,1,2025-07-02 10:38:51,14
3739,2025-07-16 14:05:22,CCD,AMN,POST,C,DW369,3.5,Detection,Ramp,Auto,34.79,60.0,6,5,OFF,1.2,0.3,0.0,False,1,2025-07-02 10:38:51,14
3740,2025-07-16 14:05:33,CCD,AMN,POST,C,DW369,0.0,Detection,Ramp,Auto,0.3,60.0,6,5,OFF,1.2,0.3,0.0,True,0,2025-07-02 10:38:51,14
3741,2025-07-16 14:05:43,CCD,AMN,POST,C,DW369,0.3,Detection,Ramp,Auto,3.95,60.0,6,5,OFF,1.2,0.3,0.0,False,1,2025-07-02 10:38:51,14
3742,2025-07-16 14:05:51,CCD,AMN,POST,C,DW369,3.1,Detection,Ramp,Auto,31.48,60.0,6,5,OFF,1.2,0.3,0.0,False,1,2025-07-02 10:38:51,14
3743,2025-07-16 14:06:01,CCD,AMN,POST,C,DW369,4.9,Detection,Ramp,Auto,48.72,60.0,6,5,OFF,1.2,0.3,0.0,False,1,2025-07-02 10:38:51,14
3744,2025-07-16 14:07:48,CCD,AMN,POST,I,DW368,1.2,Detection,Ramp,Auto,12.57,60.0,6,5,OFF,1.2,0.3,0.0,False,1,2025-07-02 09:19:54,14
3745,2025-07-16 14:07:55,CCD,AMN,POST,I,DW368,2.3,Detection,Ramp,Auto,23.18,60.0,6,5,OFF,1.2,0.3,0.0,False,1,2025-07-02 09:19:54,14
3746,2025-07-16 14:08:18,CCD,AMN,POST,I,DW368,2.7,Detection,Ramp,Auto,27.17,60.0,6,5,OFF,1.2,0.3,0.0,False,1,2025-07-02 09:19:54,14
3747,2025-07-16 14:09:00,CCD,AMN,POST,I,DW368,0.8,Detection,Ramp,Auto,8.92,60.0,6,5,OFF,1.2,0.3,0.0,False,1,2025-07-02 09:19:54,14
3748,2025-07-16 14:09:10,CCD,AMN,POST,I,DW368,1.0,Detection,Ramp,Auto,9.92,60.0,6,5,OFF,1.2,0.3,0.0,False,1,2025-07-02 09:19:54,14
3749,2025-07-16 14:09:19,CCD,AMN,POST,I,DW368,0.8,Detection,Ramp,Auto,9.26,60.0,6,5,OFF,1.2,0.3,0.0,False,1,2025-07-02 09:19:54,14
3750,2025-07-16 14:12:38,CCD,AMN,POST,I,DW368,0.2,Detection,Ramp,Auto,3.29,60.0,6,5,OFF,1.2,0.3,0.0,False,1,2025-07-02 09:19:54,14
3751,2025-07-16 14:13:11,CCD,AMN,POST,I,DW368,1.9,Detection,Ramp,Auto,19.2,60.0,6,5,OFF,1.2,0.3,0.0,False,1,2025-07-02 09:19:54,14
3752,2025-07-16 14:13:40,CCD,AMN,POST,I,DW368,0.6,Detection,Ramp,Auto,6.27,60.0,6,5,OFF,1.2,0.3,0.0,False,1,2025-07-02 09:19:54,14
3753,2025-07-16 14:14:09,CCD,AMN,POST,I,DW368,6.0,Detection,Ramp,Auto,59.34,60.0,6,5,OFF,1.2,0.3,0.0,False,1,2025-07-02 09:19:54,14
3754,2025-07-16 14:14:18,CCD,AMN,POST,I,DW368,3.2,Detection,Ramp,Auto,32.8,60.0,6,5,OFF,1.2,0.3,0.0,False,1,2025-07-02 09:19:54,14
3755,2025-07-16 14:14:36,CCD,AMN,POST,I,DW368,0.6,Detection,Ramp,Auto,6.6,60.0,6,5,OFF,1.2,0.3,0.0,False,1,2025-07-02 09:19:54,14
3756,2025-07-16 14:15:21,CCD,AMN,POST,I,DW368,0.9,Detection,Ramp,Auto,9.92,60.0,6,5,OFF,1.2,0.3,0.0,False,1,2025-07-02 09:19:54,14
3757,2025-07-16 14:15:33,CCD,AMN,POST,I,DW368,0.9,Detection,Ramp,Auto,9.26,60.0,6,5,OFF,1.2,0.3,0.0,False,1,2025-07-02 09:19:54,14
3758,2025-07-16 14:16:28,CCD,AMN,POST,I,DW368,5.6,Detection,Ramp,Auto,56.68,60.0,6,5,OFF,1.2,0.3,0.0,False,1,2025-07-02 09:19:54,14
3759,2025-07-16 14:17:20,CCD,AMN,POST,I,DW368,2.1,Detection,Ramp,Auto,22.19,60.0,6,5,OFF,1.2,0.3,0.0,False,1,2025-07-02 09:19:54,14
3760,2025-07-16 14:17:29,CCD,AMN,POST,I,DW368,0.3,Detection,Ramp,Auto,3.29,60.0,6,5,OFF,1.2,0.3,0.0,False,1,2025-07-02 09:19:54,14
3761,2025-07-16 14:18:03,CCD,AMN,POST,I,DW368,1.7,Detection,Ramp,Auto,17.22,60.0,6,5,OFF,1.2,0.3,0.0,False,1,2025-07-02 09:19:54,14
3762,2025-07-16 14:18:11,CCD,AMN,POST,I,DW368,0.7,Detection,Ramp,Auto,7.6,60.0,6,5,OFF,1.2,0.3,0.0,False,1,2025-07-02 09:19:54,14
3763,2025-07-16 14:18:28,CCD,AMN,POST,I,DW368,1.0,Detection,Ramp,Auto,10.58,60.0,6,5,OFF,1.2,0.3,0.0,False,1,2025-07-02 09:19:54,14
3764,2025-07-16 14:18:59,CCD,AMN,POST,I,DW368,0.9,Detection,Ramp,Auto,9.26,60.0,6,5,OFF,1.2,0.3,0.0,False,1,2025-07-02 09:19:54,14
3765,2025-07-16 14:19:30,CCD,AMN,POST,I,DW368,0.5,Detection,Ramp,Auto,5.94,60.0,6,5,OFF,1.2,0.3,0.0,False,1,2025-07-02 09:19:54,14
3766,2025-07-16 14:20:03,CCD,AMN,POST,I,DW368,1.7,Detection,Ramp,Auto,17.22,60.0,6,5,OFF,1.2,0.3,0.0,False,1,2025-07-02 09:19:54,14
3767,2025-07-16 14:20:30,CCD,AMN,POST,I,DW368,0.7,Detection,Ramp,Auto,8.26,60.0,6,5,OFF,1.2,0.3,0.0,False,1,2025-07-02 09:19:54,14
3768,2025-07-16 14:21:08,CCD,AMN,POST,I,DW368,2.2,Detection,Ramp,Auto,22.19,60.0,6,5,OFF,1.2,0.3,0.0,False,1,2025-07-02 09:19:54,14
3769,2025-07-16 14:21:23,CCD,AMN,POST,I,DW368,1.5,Detection,Ramp,Auto,15.89,60.0,6,5,OFF,1.2,0.3,0.0,False,1,2025-07-02 09:19:54,14
3770,2025-07-16 14:21:43,CCD,AMN,POST,I,DW368,2.0,Detection,Ramp,Auto,19.87,60.0,6,5,OFF,1.2,0.3,0.0,False,1,2025-07-02 09:19:54,14
3771,2025-07-16 14:21:59,CCD,AMN,POST,I,DW368,3.5,Detection,Ramp,Auto,34.79,60.0,6,5,OFF,1.2,0.3,0.0,False,1,2025-07-02 09:19:54,14
3772,2025-07-16 14:22:13,CCD,AMN,POST,I,DW368,2.6,Detection,Ramp,Auto,26.5,60.0,6,5,OFF,1.2,0.3,0.0,False,1,2025-07-02 09:19:54,14
3773,2025-07-16 14:22:45,CCD,AMN,POST,I,DW368,0.1,Detection,Ramp,Auto,1.29,60.0,6,5,OFF,1.2,0.3,0.0,False,1,2025-07-02 09:19:54,14
3774,2025-07-16 14:23:17,CCD,AMN,POST,I,DW368,0.0,Detection,Ramp,Auto,0.3,60.0,6,5,OFF,1.2,0.3,0.0,True,0,2025-07-02 09:19:54,14
3775,2025-07-16 14:23:44,CCD,AMN,POST,I,DW368,1.6,Detection,Ramp,Auto,16.88,60.0,6,5,OFF,1.2,0.3,0.0,False,1,2025-07-02 09:19:54,14
3776,2025-07-16 14:23:51,CCD,AMN,POST,I,DW368,1.9,Detection,Ramp,Auto,19.87,60.0,6,5,OFF,1.2,0.3,0.0,False,1,2025-07-02 09:19:54,14
3777,2025-07-16 14:24:01,CCD,AMN,POST,I,DW368,5.7,Detection,Ramp,Auto,57.01,60.0,6,5,OFF,1.2,0.3,0.0,False,1,2025-07-02 09:19:54,14
3778,2025-07-16 14:24:08,CCD,AMN,POST,I,DW368,0.3,Detection,Ramp,Auto,4.28,60.0,6,5,OFF,1.2,0.3,0.0,False,1,2025-07-02 09:19:54,14
3779,2025-07-16 14:24:37,CCD,AMN,POST,I,DW368,0.9,Detection,Ramp,Auto,9.92,60.0,6,5,OFF,1.2,0.3,0.0,False,1,2025-07-02 09:19:54,14
3780,2025-07-16 14:24:52,CCD,AMN,POST,I,DW368,2.8,Detection,Ramp,Auto,28.16,60.0,6,5,OFF,1.2,0.3,0.0,False,1,2025-07-02 09:19:54,14
3781,2025-07-16 14:24:58,CCD,AMN,POST,I,DW368,2.4,Detection,Ramp,Auto,24.18,60.0,6,5,OFF,1.2,0.3,0.0,False,1,2025-07-02 09:19:54,14
3782,2025-07-16 14:25:06,CCD,AMN,POST,I,DW368,1.7,Detection,Ramp,Auto,17.22,60.0,6,5,OFF,1.2,0.3,0.0,False,1,2025-07-02 09:19:54,14
3783,2025-07-16 14:25:31,CCD,AMN,POST,I,DW368,2.0,Detection,Ramp,Auto,20.53,60.0,6,5,OFF,1.2,0.3,0.0,False,1,2025-07-02 09:19:54,14
3784,2025-07-16 14:25:54,CCD,AMN,POST,I,DW368,1.0,Detection,Ramp,Auto,10.25,60.0,6,5,OFF,1.2,0.3,0.0,False,1,2025-07-02 09:19:54,14
3785,2025-07-16 14:26:03,CCD,AMN,POST,I,DW368,1.0,Detection,Ramp,Auto,11.24,60.0,6,5,OFF,1.2,0.3,0.0,False,1,2025-07-02 09:19:54,14
3786,2025-07-16 14:26:15,CCD,AMN,POST,I,DW368,0.9,Detection,Ramp,Auto,10.25,60.0,6,5,OFF,1.2,0.3,0.0,False,1,2025-07-02 09:19:54,14
3787,2025-07-16 14:26:28,CCD,AMN,POST,I,DW368,1.2,Detection,Ramp,Auto,12.9,60.0,6,5,OFF,1.2,0.3,0.0,False,1,2025-07-02 09:19:54,14
3788,2025-07-16 14:27:12,CCD,AMN,POST,I,DW368,1.2,Detection,Ramp,Auto,12.24,60.0,6,5,OFF,1.2,0.3,0.0,False,1,2025-07-02 09:19:54,14
3789,2025-07-16 14:27:40,CCD,AMN,POST,I,DW368,1.4,Detection,Ramp,Auto,14.89,60.0,6,5,OFF,1.2,0.3,0.0,False,1,2025-07-02 09:19:54,14
3790,2025-07-16 14:28:44,CCD,AMN,POST,I,DW368,1.2,Detection,Ramp,Auto,12.24,60.0,6,5,OFF,1.2,0.3,0.0,False,1,2025-07-02 09:19:54,14
3791,2025-07-16 14:29:18,CCD,AMN,POST,I,DW368,2.4,Detection,Ramp,Auto,23.85,60.0,6,5,OFF,1.2,0.3,0.0,False,1,2025-07-02 09:19:54,14
3792,2025-07-16 14:29:26,CCD,AMN,POST,I,DW368,0.7,Detection,Ramp,Auto,7.6,60.0,6,5,OFF,1.2,0.3,0.0,False,1,2025-07-02 09:19:54,14
3793,2025-07-16 14:29:36,CCD,AMN,POST,I,DW368,0.8,Detection,Ramp,Auto,8.59,60.0,6,5,OFF,1.2,0.3,0.0,False,1,2025-07-02 09:19:54,14
3794,2025-07-16 14:29:41,CCD,AMN,POST,I,DW368,1.1,Detection,Ramp,Auto,11.58,60.0,6,5,OFF,1.2,0.3,0.0,False,1,2025-07-02 09:19:54,14
3795,2025-07-16 14:29:48,CCD,AMN,POST,I,DW368,0.2,Detection,Ramp,Auto,2.62,60.0,6,5,OFF,1.2,0.3,0.0,False,1,2025-07-02 09:19:54,14
3796,2025-07-16 14:30:01,CCD,AMN,POST,I,DW368,2.1,Detection,Ramp,Auto,21.19,60.0,6,5,OFF,1.2,0.3,0.0,False,1,2025-07-02 09:19:54,14
3797,2025-07-16 14:30:06,CCD,AMN,POST,I,DW368,0.7,Detection,Ramp,Auto,7.26,60.0,6,5,OFF,1.2,0.3,0.0,False,1,2025-07-02 09:19:54,14
3798,2025-07-16 14:30:38,CCD,AMN,POST,I,DW368,0.7,Detection,Ramp,Auto,6.93,60.0,6,5,OFF,1.2,0.3,0.0,False,1,2025-07-02 09:19:54,14
3799,2025-07-16 14:30:51,CCD,AMN,POST,I,DW368,0.9,Detection,Ramp,Auto,9.59,60.0,6,5,OFF,1.2,0.3,0.0,False,1,2025-07-02 09:19:54,14
3800,2025-07-16 14:31:13,CCD,AMN,POST,I,DW368,0.5,Detection,Ramp,Auto,5.61,60.0,6,5,OFF,1.2,0.3,0.0,False,1,2025-07-02 09:19:54,14
3801,2025-07-16 14:31:25,CCD,AMN,POST,I,DW368,0.9,Detection,Ramp,Auto,9.26,60.0,6,5,OFF,1.2,0.3,0.0,False,1,2025-07-02 09:19:54,14
3802,2025-07-16 14:31:34,CCD,AMN,POST,I,DW368,0.7,Detection,Ramp,Auto,7.26,60.0,6,5,OFF,1.2,0.3,0.0,False,1,2025-07-02 09:19:54,14
3803,2025-07-16 14:32:29,CCD,AMN,POST,I,DW368,1.9,Detection,Ramp,Auto,19.54,60.0,6,5,OFF,1.2,0.3,0.0,False,1,2025-07-02 09:19:54,14
3804,2025-07-16 14:32:34,CCD,AMN,POST,I,DW368,0.8,Detection,Ramp,Auto,9.26,60.0,6,5,OFF,1.2,0.3,0.0,False,1,2025-07-02 09:19:54,14
3805,2025-07-16 14:32:56,CCD,AMN,POST,I,DW368,1.1,Detection,Ramp,Auto,11.58,60.0,6,5,OFF,1.2,0.3,0.0,False,1,2025-07-02 09:19:54,14
3806,2025-07-16 14:33:07,CCD,AMN,POST,I,DW368,4.4,Detection,Ramp,Auto,44.08,60.0,6,5,OFF,1.2,0.3,0.0,False,1,2025-07-02 09:19:54,14
3807,2025-07-16 14:34:37,CCD,AMN,POST,I,DW369,2.2,Undefined,Ramp,Auto,22.19,60.0,6,5,OFF,1.2,0.3,0.0,False,0,2025-07-02 10:38:51,14
3808,2025-07-16 14:34:44,CCD,AMN,POST,I,DW369,4.3,Detection,Ramp,Auto,42.09,60.0,6,5,OFF,1.2,0.3,0.0,False,1,2025-07-02 10:38:51,14
3809,2025-07-16 14:34:54,CCD,AMN,POST,I,DW369,3.3,Detection,Ramp,Auto,33.47,60.0,6,5,OFF,1.2,0.3,0.0,False,1,2025-07-02 10:38:51,14
3810,2025-07-16 14:35:08,CCD,AMN,POST,I,DW369,3.7,Detection,Ramp,Auto,37.12,60.0,6,5,OFF,1.2,0.3,0.0,False,1,2025-07-02 10:38:51,14
3811,2025-07-16 14:35:14,CCD,AMN,POST,I,DW369,0.2,Detection,Ramp,Auto,2.62,60.0,6,5,OFF,1.2,0.3,0.0,False,1,2025-07-02 10:38:51,14
3812,2025-07-16 14:35:36,CCD,AMN,POST,I,DW369,3.0,Detection,Ramp,Auto,30.48,60.0,6,5,OFF,1.2,0.3,0.0,False,1,2025-07-02 10:38:51,14
3813,2025-07-16 14:35:53,CCD,AMN,POST,I,DW369,2.2,Detection,Ramp,Auto,22.85,60.0,6,5,OFF,1.2,0.3,0.0,False,1,2025-07-02 10:38:51,14
3814,2025-07-16 14:36:10,CCD,AMN,POST,I,DW369,1.5,Detection,Ramp,Auto,15.89,60.0,6,5,OFF,1.2,0.3,0.0,False,1,2025-07-02 10:38:51,14
3815,2025-07-16 14:36:15,CCD,AMN,POST,I,DW369,0.6,Detection,Ramp,Auto,6.93,60.0,6,5,OFF,1.2,0.3,0.0,False,1,2025-07-02 10:38:51,14
3816,2025-07-16 14:36:28,CCD,AMN,POST,I,DW369,2.2,Detection,Ramp,Auto,22.52,60.0,6,5,OFF,1.2,0.3,0.0,False,1,2025-07-02 10:38:51,14
3817,2025-07-16 14:37:18,CCD,AMN,POST,I,DW369,2.4,Detection,Ramp,Auto,24.18,60.0,6,5,OFF,1.2,0.3,0.0,False,1,2025-07-02 10:38:51,14
3818,2025-07-16 14:37:24,CCD,AMN,POST,I,DW369,1.0,Detection,Ramp,Auto,10.25,60.0,6,5,OFF,1.2,0.3,0.0,False,1,2025-07-02 10:38:51,14
3819,2025-07-16 14:37:46,CCD,AMN,POST,I,DW369,0.9,Detection,Ramp,Auto,9.92,60.0,6,5,OFF,1.2,0.3,0.0,False,1,2025-07-02 10:38:51,14
3820,2025-07-16 14:37:53,CCD,AMN,POST,I,DW369,3.2,Detection,Ramp,Auto,31.81,60.0,6,5,OFF,1.2,0.3,0.0,False,1,2025-07-02 10:38:51,14
3821,2025-07-16 14:39:18,CCD,AMN,POST,I,DW369,1.6,Detection,Ramp,Auto,16.55,60.0,6,5,OFF,1.2,0.3,0.0,False,1,2025-07-02 10:38:51,14
3822,2025-07-16 14:39:23,CCD,AMN,POST,I,DW369,0.7,Detection,Ramp,Auto,7.6,60.0,6,5,OFF,1.2,0.3,0.0,False,1,2025-07-02 10:38:51,14
3823,2025-07-16 14:39:45,CCD,AMN,POST,I,DW369,1.3,Detection,Ramp,Auto,14.23,60.0,6,5,OFF,1.2,0.3,0.0,False,1,2025-07-02 10:38:51,14
3824,2025-07-16 14:40:27,CCD,AMN,POST,I,DW369,2.6,Detection,Ramp,Auto,25.84,60.0,6,5,OFF,1.2,0.3,0.0,False,1,2025-07-02 10:38:51,14
3825,2025-07-16 14:40:58,CCD,AMN,POST,I,DW369,2.1,Detection,Ramp,Auto,21.19,60.0,6,5,OFF,1.2,0.3,0.0,False,1,2025-07-02 10:38:51,14
3826,2025-07-16 14:41:13,CCD,AMN,POST,I,DW369,2.1,Detection,Ramp,Auto,21.53,60.0,6,5,OFF,1.2,0.3,0.0,False,1,2025-07-02 10:38:51,14
3827,2025-07-16 14:41:24,CCD,AMN,POST,I,DW369,2.3,Detection,Ramp,Auto,23.18,60.0,6,5,OFF,1.2,0.3,0.0,False,1,2025-07-02 10:38:51,14
3828,2025-07-16 14:41:46,CCD,AMN,POST,I,DW369,0.9,Detection,Ramp,Auto,9.59,60.0,6,5,OFF,1.2,0.3,0.0,False,1,2025-07-02 10:38:51,14
3829,2025-07-16 14:42:03,CCD,AMN,POST,I,DW369,4.0,Detection,Ramp,Auto,40.1,60.0,6,5,OFF,1.2,0.3,0.0,False,1,2025-07-02 10:38:51,14
3830,2025-07-16 14:42:14,CCD,AMN,POST,I,DW369,2.0,Detection,Ramp,Auto,20.2,60.0,6,5,OFF,1.2,0.3,0.0,False,1,2025-07-02 10:38:51,14
3831,2025-07-16 14:42:22,CCD,AMN,POST,I,DW369,1.7,Detection,Ramp,Auto,17.88,60.0,6,5,OFF,1.2,0.3,0.0,False,1,2025-07-02 10:38:51,14
3832,2025-07-16 14:42:42,CCD,AMN,POST,I,DW369,5.3,Detection,Ramp,Auto,53.03,60.0,6,5,OFF,1.2,0.3,0.0,False,1,2025-07-02 10:38:51,14
3833,2025-07-16 14:42:53,CCD,AMN,POST,I,DW369,4.2,Detection,Ramp,Auto,41.43,60.0,6,5,OFF,1.2,0.3,0.0,False,1,2025-07-02 10:38:51,14
3834,2025-07-16 14:43:04,CCD,AMN,POST,I,DW369,0.9,Detection,Ramp,Auto,8.92,60.0,6,5,OFF,1.2,0.3,0.0,False,1,2025-07-02 10:38:51,14
3835,2025-07-16 14:43:26,CCD,AMN,POST,I,DW369,2.6,Detection,Ramp,Auto,25.51,60.0,6,5,OFF,1.2,0.3,0.0,False,1,2025-07-02 10:38:51,14
3836,2025-07-16 14:43:36,CCD,AMN,POST,I,DW369,1.6,Detection,Ramp,Auto,16.55,60.0,6,5,OFF,1.2,0.3,0.0,False,1,2025-07-02 10:38:51,14
3837,2025-07-16 14:43:43,CCD,AMN,POST,I,DW369,2.5,Detection,Ramp,Auto,25.17,60.0,6,5,OFF,1.2,0.3,0.0,False,1,2025-07-02 10:38:51,14
3838,2025-07-16 14:43:48,CCD,AMN,POST,I,DW369,0.0,Detection,Ramp,Auto,0.3,60.0,6,5,OFF,1.2,0.3,0.0,True,0,2025-07-02 10:38:51,14
3839,2025-07-16 14:44:01,CCD,AMN,POST,I,DW369,2.0,Detection,Ramp,Auto,20.53,60.0,6,5,OFF,1.2,0.3,0.0,False,1,2025-07-02 10:38:51,14
3840,2025-07-16 14:44:06,CCD,AMN,POST,I,DW369,1.9,Detection,Ramp,Auto,19.87,60.0,6,5,OFF,1.2,0.3,0.0,False,1,2025-07-02 10:38:51,14
3841,2025-07-16 14:44:16,CCD,AMN,POST,I,DW369,2.7,Detection,Ramp,Auto,27.17,60.0,6,5,OFF,1.2,0.3,0.0,False,1,2025-07-02 10:38:51,14
3842,2025-07-16 14:44:30,CCD,AMN,POST,I,DW369,0.9,Detection,Ramp,Auto,9.26,60.0,6,5,OFF,1.2,0.3,0.0,False,1,2025-07-02 10:38:51,14
3843,2025-07-16 14:44:42,CCD,AMN,POST,I,DW369,1.0,Detection,Ramp,Auto,10.91,60.0,6,5,OFF,1.2,0.3,0.0,False,1,2025-07-02 10:38:51,14
3844,2025-07-16 14:46:05,CCD,AMN,POST,I,DW369,1.5,Detection,Ramp,Auto,15.89,60.0,6,5,OFF,1.2,0.3,0.0,False,1,2025-07-02 10:38:51,14
3845,2025-07-16 14:46:10,CCD,AMN,POST,I,DW369,2.1,Detection,Ramp,Auto,20.86,60.0,6,5,OFF,1.2,0.3,0.0,False,1,2025-07-02 10:38:51,14
3846,2025-07-16 14:46:22,CCD,AMN,POST,I,DW369,2.1,Detection,Ramp,Auto,21.53,60.0,6,5,OFF,1.2,0.3,0.0,False,1,2025-07-02 10:38:51,14
3847,2025-07-22 09:05:17,CCD,AMN,POST,I,DW369,3.0,Detection,Ramp,Auto,29.49,60.0,6,5,OFF,1.2,0.3,0.0,False,1,2025-07-02 10:38:51,19
3848,2025-07-22 09:05:29,CCD,AMN,POST,I,DW369,2.7,Detection,Ramp,Auto,26.83,60.0,6,5,OFF,1.2,0.3,0.0,False,1,2025-07-02 10:38:51,19
3849,2025-07-22 09:06:19,CCD,AMN,POST,I,DW369,0.0,Detection,Ramp,Auto,0.96,60.0,6,5,OFF,1.2,0.3,0.0,True,0,2025-07-02 10:38:51,19
3850,2025-07-22 09:06:38,CCD,AMN,POST,I,DW369,4.6,Detection,Ramp,Auto,45.74,60.0,6,5,OFF,1.2,0.3,0.0,False,1,2025-07-02 10:38:51,19
3851,2025-07-22 09:06:51,CCD,AMN,POST,I,DW369,3.2,Detection,Ramp,Auto,32.14,60.0,6,5,OFF,1.2,0.3,0.0,False,1,2025-07-02 10:38:51,19
3852,2025-07-22 09:07:02,CCD,AMN,POST,I,DW369,1.7,Detection,Ramp,Auto,17.22,60.0,6,5,OFF,1.2,0.3,0.0,False,1,2025-07-02 10:38:51,19
3853,2025-07-22 09:07:17,CCD,AMN,POST,I,DW369,3.8,Detection,Ramp,Auto,38.11,60.0,6,5,OFF,1.2,0.3,0.0,False,1,2025-07-02 10:38:51,19
3854,2025-07-22 09:07:25,CCD,AMN,POST,I,DW369,2.5,Detection,Ramp,Auto,25.17,60.0,6,5,OFF,1.2,0.3,0.0,False,1,2025-07-02 10:38:51,19
3855,2025-07-22 09:07:32,CCD,AMN,POST,I,DW369,3.3,Detection,Ramp,Auto,33.13,60.0,6,5,OFF,1.2,0.3,0.0,False,1,2025-07-02 10:38:51,19
3856,2025-07-22 09:07:45,CCD,AMN,POST,I,DW369,3.6,Detection,Ramp,Auto,35.46,60.0,6,5,OFF,1.2,0.3,0.0,False,1,2025-07-02 10:38:51,19
3857,2025-07-22 09:07:52,CCD,AMN,POST,I,DW369,1.7,Detection,Ramp,Auto,16.88,60.0,6,5,OFF,1.2,0.3,0.0,False,1,2025-07-02 10:38:51,19
3858,2025-07-22 09:08:06,CCD,AMN,POST,I,DW369,3.4,Detection,Ramp,Auto,34.46,60.0,6,5,OFF,1.2,0.3,0.0,False,1,2025-07-02 10:38:51,19
3859,2025-07-22 09:08:22,CCD,AMN,POST,I,DW369,3.4,Detection,Ramp,Auto,33.8,60.0,6,5,OFF,1.2,0.3,0.0,False,1,2025-07-02 10:38:51,19
3860,2025-07-22 09:08:40,CCD,AMN,POST,I,DW369,2.1,Detection,Ramp,Auto,20.86,60.0,6,5,OFF,1.2,0.3,0.0,False,1,2025-07-02 10:38:51,19
3861,2025-07-22 09:09:03,CCD,AMN,POST,I,DW369,0.5,Detection,Ramp,Auto,5.94,60.0,6,5,OFF,1.2,0.3,0.0,False,1,2025-07-02 10:38:51,19
3862,2025-07-22 09:09:24,CCD,AMN,POST,I,DW369,1.8,Detection,Ramp,Auto,19.2,60.0,6,5,OFF,1.2,0.3,0.0,False,1,2025-07-02 10:38:51,19
3863,2025-07-22 09:09:47,CCD,AMN,POST,I,DW369,2.8,Detection,Ramp,Auto,28.82,60.0,6,5,OFF,1.2,0.3,0.0,False,1,2025-07-02 10:38:51,19
3864,2025-07-22 09:09:57,CCD,AMN,POST,I,DW369,3.4,Detection,Ramp,Auto,34.46,60.0,6,5,OFF,1.2,0.3,0.0,False,1,2025-07-02 10:38:51,19
3865,2025-07-22 09:10:17,CCD,AMN,POST,I,DW369,2.1,Detection,Ramp,Auto,21.53,60.0,6,5,OFF,1.2,0.3,0.0,False,1,2025-07-02 10:38:51,19
3866,2025-07-22 09:10:28,CCD,AMN,POST,I,DW369,2.4,Detection,Ramp,Auto,24.18,60.0,6,5,OFF,1.2,0.3,0.0,False,1,2025-07-02 10:38:51,19
3867,2025-07-22 09:11:23,CCD,AMN,POST,I,DW369,3.8,Detection,Ramp,Auto,37.78,60.0,6,5,OFF,1.2,0.3,0.0,False,1,2025-07-02 10:38:51,19
3868,2025-07-22 09:11:33,CCD,AMN,POST,I,DW369,2.3,Detection,Ramp,Auto,23.52,60.0,6,5,OFF,1.2,0.3,0.0,False,1,2025-07-02 10:38:51,19
3869,2025-07-22 09:11:42,CCD,AMN,POST,I,DW369,2.7,Detection,Ramp,Auto,27.83,60.0,6,5,OFF,1.2,0.3,0.0,False,1,2025-07-02 10:38:51,19
3870,2025-07-22 09:12:15,CCD,AMN,POST,I,DW369,2.2,Detection,Ramp,Auto,21.86,60.0,6,5,OFF,1.2,0.3,0.0,False,1,2025-07-02 10:38:51,19
3871,2025-07-22 09:12:24,CCD,AMN,POST,I,DW369,3.3,Detection,Ramp,Auto,32.8,60.0,6,5,OFF,1.2,0.3,0.0,False,1,2025-07-02 10:38:51,19
3872,2025-07-22 09:12:37,CCD,AMN,POST,I,DW369,0.2,Detection,Ramp,Auto,2.95,60.0,6,5,OFF,1.2,0.3,0.0,False,1,2025-07-02 10:38:51,19
3873,2025-07-22 09:13:09,CCD,AMN,POST,I,DW369,0.1,Detection,Ramp,Auto,2.29,60.0,6,5,OFF,1.2,0.3,0.0,False,1,2025-07-02 10:38:51,19
3874,2025-07-22 09:13:16,CCD,AMN,POST,I,DW369,0.1,Detection,Ramp,Auto,2.29,60.0,6,5,OFF,1.2,0.3,0.0,False,1,2025-07-02 10:38:51,19
3875,2025-07-22 09:13:25,CCD,AMN,POST,I,DW369,4.3,Detection,Ramp,Auto,42.75,60.0,6,5,OFF,1.2,0.3,0.0,False,1,2025-07-02 10:38:51,19
3876,2025-07-22 09:13:35,CCD,AMN,POST,I,DW369,0.8,Detection,Ramp,Auto,8.92,60.0,6,5,OFF,1.2,0.3,0.0,False,1,2025-07-02 10:38:51,19
3877,2025-07-22 09:14:24,CCD,AMN,POST,I,DW369,3.3,Detection,Ramp,Auto,32.8,60.0,6,5,OFF,1.2,0.3,0.0,False,1,2025-07-02 10:38:51,19
3878,2025-07-22 09:14:35,CCD,AMN,POST,I,DW369,0.3,Detection,Ramp,Auto,3.95,60.0,6,5,OFF,1.2,0.3,0.0,False,1,2025-07-02 10:38:51,19
3879,2025-07-22 09:14:46,CCD,AMN,POST,I,DW369,3.2,Detection,Ramp,Auto,32.14,60.0,6,5,OFF,1.2,0.3,0.0,False,1,2025-07-02 10:38:51,19
3880,2025-07-22 09:15:06,CCD,AMN,POST,I,DW369,3.2,Detection,Ramp,Auto,32.14,60.0,6,5,OFF,1.2,0.3,0.0,False,1,2025-07-02 10:38:51,19
3881,2025-07-22 09:15:18,CCD,AMN,POST,I,DW369,2.4,Detection,Ramp,Auto,24.18,60.0,6,5,OFF,1.2,0.3,0.0,False,1,2025-07-02 10:38:51,19
3882,2025-07-22 09:15:31,CCD,AMN,POST,I,DW369,3.6,Detection,Ramp,Auto,36.12,60.0,6,5,OFF,1.2,0.3,0.0,False,1,2025-07-02 10:38:51,19
3883,2025-07-22 09:16:20,CCD,AMN,POST,C,DW369,3.6,Detection,Ramp,Auto,35.46,60.0,6,5,OFF,1.2,0.3,0.0,False,1,2025-07-02 10:38:51,19
3884,2025-07-22 09:16:35,CCD,AMN,POST,C,DW369,3.9,Detection,Ramp,Auto,38.77,60.0,6,5,OFF,1.2,0.3,0.0,False,1,2025-07-02 10:38:51,19
3885,2025-07-22 09:16:54,CCD,AMN,POST,C,DW369,6.0,Detection,Ramp,Auto,59.67,60.0,6,5,OFF,1.2,0.3,0.0,False,1,2025-07-02 10:38:51,19
3886,2025-07-22 09:17:11,CCD,AMN,POST,C,DW369,6.3,Detection,Ramp,Auto,60.0,60.0,6,5,OFF,1.2,0.3,0.0,False,1,2025-07-02 10:38:51,19
3887,2025-07-22 09:17:43,CCD,AMN,POST,C,DW369,2.1,Detection,Ramp,Auto,21.19,60.0,6,5,OFF,1.2,0.3,0.0,False,1,2025-07-02 10:38:51,19
3888,2025-07-22 09:17:55,CCD,AMN,POST,C,DW369,4.8,Detection,Ramp,Auto,48.39,60.0,6,5,OFF,1.2,0.3,0.0,False,1,2025-07-02 10:38:51,19
3889,2025-07-22 09:18:06,CCD,AMN,POST,C,DW369,4.2,Detection,Ramp,Auto,41.43,60.0,6,5,OFF,1.2,0.3,0.0,False,1,2025-07-02 10:38:51,19
3890,2025-07-22 09:18:35,CCD,AMN,POST,C,DW369,3.9,Detection,Ramp,Auto,38.77,60.0,6,5,OFF,1.2,0.3,0.0,False,1,2025-07-02 10:38:51,19
3891,2025-07-22 09:18:42,CCD,AMN,POST,C,DW369,2.4,Detection,Ramp,Auto,24.18,60.0,6,5,OFF,1.2,0.3,0.0,False,1,2025-07-02 10:38:51,19
3892,2025-07-22 09:19:29,CCD,AMN,POST,C,DW369,0.3,Detection,Ramp,Auto,3.62,60.0,6,5,OFF,1.2,0.3,0.0,False,1,2025-07-02 10:38:51,19
3893,2025-07-22 09:19:42,CCD,AMN,POST,C,DW369,2.4,Detection,Ramp,Auto,23.85,60.0,6,5,OFF,1.2,0.3,0.0,False,1,2025-07-02 10:38:51,19
3894,2025-07-22 09:19:52,CCD,AMN,POST,C,DW369,3.1,Detection,Ramp,Auto,31.81,60.0,6,5,OFF,1.2,0.3,0.0,False,1,2025-07-02 10:38:51,19
3895,2025-07-22 09:20:03,CCD,AMN,POST,C,DW369,3.7,Detection,Ramp,Auto,36.45,60.0,6,5,OFF,1.2,0.3,0.0,False,1,2025-07-02 10:38:51,19
